,ax,ay,az,gx,gy,gz,mx,my,mz
0,0.197021484375,0.97265625,0.22314453125,0.244140625,0.946044921875,-0.701904296875,124.15355044261294,86.71156898656899,3.616105769230769
1,0.19580078125,0.974609375,0.226318359375,-0.457763671875,4.547119140625,-1.739501953125,125.40401785714285,87.24572649572649,4.132692307692308
2,0.18701171875,0.978271484375,0.22265625,-0.640869140625,3.0517578125,-1.3427734375,125.93993246336997,87.067673992674,3.616105769230769
3,0.187255859375,0.97802734375,0.23486328125,0.18310546875,3.570556640625,0.1220703125,126.47584706959707,87.24572649572649,1.7219551282051282
4,0.181640625,0.977783203125,0.2373046875,-0.42724609375,2.288818359375,-0.8544921875,125.76129426129425,86.53351648351648,3.4439102564102564
5,0.17822265625,0.97265625,0.2431640625,0.18310546875,3.509521484375,0.06103515625,125.22537965506716,85.64325396825396,3.9604967948717946
6,0.187744140625,0.97509765625,0.22607421875,0.823974609375,0.701904296875,-0.244140625,125.04674145299145,86.53351648351648,4.477083333333333
7,0.181884765625,0.972900390625,0.23388671875,0.213623046875,1.5869140625,-0.9765625,126.11857066544566,87.9579365079365,2.755128205128205
8,0.186279296875,0.97314453125,0.228515625,0.67138671875,2.532958984375,-1.312255859375,124.68946504884005,86.88962148962149,3.0995192307692303
9,0.187744140625,0.966552734375,0.232421875,-0.152587890625,2.838134765625,-0.79345703125,127.01176167582418,86.35546398046397,2.5829326923076925
10,0.182373046875,0.974365234375,0.228759765625,0.9765625,1.861572265625,-0.701904296875,126.11857066544566,88.3140415140415,2.755128205128205
11,0.17138671875,0.968017578125,0.23681640625,0.79345703125,1.52587890625,0.732421875,125.93993246336997,87.067673992674,2.9273237179487177
12,0.197998046875,0.9794921875,0.223388671875,1.8310546875,1.77001953125,-0.274658203125,127.36903807997558,87.77988400488401,3.616105769230769
13,0.195068359375,0.976806640625,0.222412109375,-0.091552734375,2.74658203125,0.244140625,126.83312347374846,85.82130647130647,3.788301282051282
14,0.191162109375,0.974365234375,0.227294921875,-0.946044921875,3.90625,2.86865234375,125.76129426129425,86.53351648351648,2.755128205128205
15,0.203125,0.998046875,0.224609375,-6.195068359375,5.2490234375,3.35693359375,125.22537965506716,87.423778998779,4.30488782051282
16,0.17919921875,0.96875,0.25634765625,3.692626953125,16.41845703125,6.683349609375,124.33218864468864,86.53351648351648,3.0995192307692303
17,0.190185546875,0.94921875,0.23974609375,0.823974609375,1.983642578125,3.662109375,125.04674145299145,87.6018315018315,1.3775641025641026
18,0.2080078125,0.970947265625,0.232666015625,2.044677734375,-3.0517578125,-1.068115234375,124.15355044261294,87.067673992674,1.894150641025641
19,0.2421875,0.982666015625,0.2265625,3.2958984375,1.3427734375,3.997802734375,124.51082684676433,85.28714896214896,1.2053685897435897
20,0.20703125,0.95654296875,0.2294921875,6.04248046875,9.674072265625,6.195068359375,123.97491224053724,86.17741147741148,1.7219551282051282
21,0.285400390625,0.9921875,0.17724609375,6.317138671875,0.396728515625,10.955810546875,122.54580662393161,85.82130647130647,1.7219551282051282
22,0.283447265625,0.98486328125,0.1826171875,12.39013671875,19.47021484375,25.115966796875,118.79440438034187,83.50662393162393,-0.17219551282051282
23,0.294677734375,0.9326171875,0.189697265625,-1.89208984375,11.65771484375,14.190673828125,118.79440438034187,85.99935897435897,0.5165865384615385
24,0.33154296875,0.990966796875,0.157958984375,16.082763671875,14.923095703125,15.045166015625,118.61576617826618,84.39688644688646,-3.0995192307692303
25,0.340576171875,0.929443359375,0.203125,5.401611328125,22.064208984375,11.8408203125,114.68572573260073,85.10909645909646,-4.821474358974359
26,0.324462890625,0.90869140625,0.190185546875,6.04248046875,36.895751953125,5.462646484375,115.22164033882783,83.50662393162393,-5.682451923076924
27,0.281494140625,0.94482421875,0.2509765625,-13.214111328125,10.009765625,-4.241943359375,113.97117292429793,85.46520146520146,-8.954166666666666
28,0.334228515625,0.946044921875,0.169189453125,4.302978515625,2.8076171875,-2.25830078125,114.50708753052503,85.64325396825396,-9.815144230769231
29,0.3251953125,0.9296875,0.217529296875,1.52587890625,3.997802734375,0.48828125,115.57891674297925,86.35546398046397,-8.437580128205127
30,0.340087890625,0.955810546875,0.193359375,0.79345703125,1.77001953125,0.0,116.29346955128206,85.28714896214896,-9.815144230769231
31,0.352783203125,0.935546875,0.199462890625,0.0,11.444091796875,-1.617431640625,114.14981112637362,86.35546398046397,-9.12636217948718
32,0.283203125,0.951904296875,0.228515625,-2.0751953125,8.48388671875,-1.556396484375,113.61389652014653,86.53351648351648,-9.987339743589743
33,0.330078125,0.9521484375,0.24560546875,0.091552734375,0.213623046875,-2.86865234375,116.11483134920634,87.24572649572649,-10.676121794871793
34,0.29931640625,0.956298828125,0.224365234375,1.312255859375,13.885498046875,0.30517578125,115.22164033882783,85.99935897435897,-11.53709935897436
35,0.286376953125,0.94091796875,0.254150390625,-4.241943359375,1.64794921875,-4.45556640625,114.68572573260073,86.53351648351648,-12.053685897435898
36,0.2900390625,0.9375,0.23828125,3.204345703125,17.7001953125,0.640869140625,115.57891674297925,87.067673992674,-11.53709935897436
37,0.278076171875,0.9326171875,0.267333984375,-0.396728515625,0.244140625,-0.30517578125,114.86436393467642,86.35546398046397,-12.91466346153846
38,0.283447265625,0.9443359375,0.26318359375,0.732421875,6.2255859375,0.030517578125,113.97117292429793,87.6018315018315,-12.398076923076921
39,0.298095703125,0.950927734375,0.23583984375,0.1220703125,2.685546875,-0.396728515625,115.22164033882783,86.71156898656899,-12.570272435897436
40,0.264892578125,0.940185546875,0.272705078125,0.0,-0.06103515625,-1.3427734375,114.50708753052503,86.71156898656899,-11.881490384615383
41,0.2841796875,0.94189453125,0.251708984375,-2.62451171875,0.823974609375,-1.556396484375,114.86436393467642,85.99935897435897,-12.570272435897436
42,0.2958984375,0.952880859375,0.248291015625,-0.06103515625,1.40380859375,-0.152587890625,114.32844932844932,87.9579365079365,-11.364903846153847
43,0.278564453125,0.926513671875,0.265380859375,0.457763671875,1.0986328125,-0.18310546875,114.68572573260073,87.24572649572649,-11.364903846153847
44,0.313232421875,0.951416015625,0.2509765625,-1.983642578125,-6.256103515625,-1.556396484375,115.93619314713065,86.71156898656899,-11.881490384615383
45,0.29931640625,0.942626953125,0.243408203125,2.01416015625,2.410888671875,1.40380859375,114.68572573260073,86.17741147741148,-12.398076923076921
46,0.326416015625,0.94482421875,0.234619140625,0.091552734375,1.03759765625,-1.52587890625,115.04300213675214,86.53351648351648,-10.33173076923077
47,0.281005859375,0.950927734375,0.259521484375,0.579833984375,2.685546875,0.030517578125,115.22164033882783,86.35546398046397,-9.815144230769231
48,0.3037109375,0.9375,0.2548828125,0.152587890625,2.593994140625,-0.701904296875,115.04300213675214,86.17741147741148,-10.33173076923077
49,0.2900390625,0.94775390625,0.25244140625,0.762939453125,2.532958984375,-0.518798828125,114.68572573260073,86.17741147741148,-10.33173076923077
50,0.29150390625,0.935546875,0.249267578125,0.1220703125,0.152587890625,-0.54931640625,115.75755494505493,87.24572649572649,-9.987339743589743
51,0.30419921875,0.946533203125,0.242431640625,1.5869140625,1.800537109375,-0.48828125,114.68572573260073,87.24572649572649,-11.364903846153847
52,0.29296875,0.94775390625,0.249267578125,-0.67138671875,2.471923828125,-1.03759765625,114.50708753052503,86.71156898656899,-10.159535256410257
53,0.297607421875,0.9501953125,0.234130859375,0.91552734375,4.69970703125,-0.48828125,115.75755494505493,87.9579365079365,-10.33173076923077
54,0.290283203125,0.948974609375,0.2470703125,0.06103515625,3.72314453125,-0.152587890625,114.86436393467642,86.71156898656899,-10.159535256410257
55,0.292724609375,0.937744140625,0.251953125,0.396728515625,4.150390625,-0.67138671875,115.93619314713065,86.71156898656899,-10.503926282051282
56,0.288818359375,0.9453125,0.251220703125,0.54931640625,2.74658203125,-0.274658203125,115.40027854090354,87.9579365079365,-10.676121794871793
57,0.296875,0.944580078125,0.2470703125,0.42724609375,1.46484375,-0.030517578125,115.22164033882783,85.99935897435897,-11.192708333333332
58,0.296630859375,0.948974609375,0.24462890625,0.1220703125,3.35693359375,0.030517578125,114.68572573260073,86.17741147741148,-11.70929487179487
59,0.30126953125,0.9443359375,0.243408203125,0.244140625,1.77001953125,-0.244140625,115.22164033882783,87.067673992674,-11.881490384615383
60,0.29541015625,0.94970703125,0.245361328125,0.152587890625,2.532958984375,-0.244140625,115.75755494505493,87.6018315018315,-12.053685897435898
61,0.29052734375,0.94189453125,0.255126953125,0.518798828125,3.0517578125,0.0,115.93619314713065,85.64325396825396,-11.53709935897436
62,0.294677734375,0.9404296875,0.252685546875,0.579833984375,3.5400390625,-0.579833984375,115.93619314713065,87.067673992674,-10.503926282051282
63,0.298095703125,0.94287109375,0.260009765625,0.67138671875,2.38037109375,-0.762939453125,115.22164033882783,85.64325396825396,-11.192708333333332
64,0.2880859375,0.9423828125,0.25048828125,0.762939453125,2.655029296875,0.1220703125,114.86436393467642,86.71156898656899,-11.192708333333332
65,0.2890625,0.940185546875,0.26123046875,0.244140625,3.72314453125,-0.54931640625,114.14981112637362,86.35546398046397,-12.570272435897436
66,0.301025390625,0.94580078125,0.250244140625,0.244140625,2.13623046875,-0.42724609375,114.86436393467642,87.423778998779,-10.848317307692309
67,0.291015625,0.94677734375,0.25927734375,0.213623046875,2.50244140625,-0.030517578125,115.04300213675214,89.02625152625153,-12.398076923076921
68,0.296142578125,0.93994140625,0.249755859375,0.518798828125,3.0517578125,-0.701904296875,115.04300213675214,87.6018315018315,-11.70929487179487
69,0.287109375,0.947509765625,0.250732421875,0.54931640625,1.708984375,-0.8544921875,116.65074595543345,87.423778998779,-10.848317307692309
70,0.2978515625,0.945068359375,0.24658203125,0.3662109375,0.91552734375,-0.213623046875,114.14981112637362,87.77988400488401,-11.53709935897436
71,0.292236328125,0.94482421875,0.246337890625,1.007080078125,1.983642578125,-0.1220703125,114.68572573260073,86.88962148962149,-10.676121794871793
72,0.27880859375,0.94140625,0.268798828125,0.30517578125,2.50244140625,-0.579833984375,116.11483134920634,87.24572649572649,-11.02051282051282
73,0.298583984375,0.94287109375,0.244873046875,0.701904296875,2.0751953125,-0.54931640625,115.57891674297925,88.49209401709402,-9.470753205128204
74,0.284912109375,0.944091796875,0.249267578125,0.79345703125,1.861572265625,-0.091552734375,115.22164033882783,87.77988400488401,-10.159535256410257
75,0.280517578125,0.947021484375,0.26220703125,0.0,2.0751953125,-0.79345703125,115.57891674297925,87.77988400488401,-10.159535256410257
76,0.2998046875,0.94775390625,0.25244140625,0.701904296875,3.753662109375,0.1220703125,115.40027854090354,85.82130647130647,-11.02051282051282
77,0.284912109375,0.94580078125,0.24609375,0.396728515625,3.35693359375,-0.091552734375,114.86436393467642,87.423778998779,-12.570272435897436
78,0.294921875,0.942626953125,0.255615234375,0.579833984375,1.617431640625,-0.244140625,115.93619314713065,87.067673992674,-11.881490384615383
79,0.284423828125,0.940185546875,0.25146484375,0.457763671875,4.486083984375,-0.79345703125,113.97117292429793,87.6018315018315,-11.02051282051282
80,0.299072265625,0.943115234375,0.247802734375,0.30517578125,0.6103515625,-0.152587890625,114.86436393467642,86.71156898656899,-12.570272435897436
81,0.284423828125,0.94287109375,0.256103515625,1.220703125,3.60107421875,0.18310546875,114.14981112637362,86.35546398046397,-12.570272435897436
82,0.288818359375,0.94140625,0.241943359375,0.1220703125,2.471923828125,-0.396728515625,114.86436393467642,86.35546398046397,-11.881490384615383
83,0.296142578125,0.9404296875,0.250732421875,0.457763671875,3.0517578125,-0.152587890625,116.11483134920634,87.6018315018315,-11.02051282051282
84,0.291748046875,0.9384765625,0.251953125,0.457763671875,1.373291015625,-0.457763671875,114.14981112637362,87.423778998779,-12.570272435897436
85,0.28955078125,0.943603515625,0.24853515625,0.67138671875,3.72314453125,-0.091552734375,115.75755494505493,86.88962148962149,-10.676121794871793
86,0.2958984375,0.944091796875,0.24560546875,0.0,2.62451171875,-0.335693359375,116.29346955128206,87.423778998779,-10.848317307692309
87,0.294677734375,0.93798828125,0.244140625,0.335693359375,3.570556640625,-0.244140625,115.75755494505493,85.82130647130647,-9.987339743589743
88,0.295654296875,0.949462890625,0.251953125,0.48828125,1.708984375,-0.244140625,115.22164033882783,86.71156898656899,-11.53709935897436
89,0.28564453125,0.94677734375,0.25634765625,0.091552734375,2.685546875,-0.06103515625,116.11483134920634,86.53351648351648,-10.33173076923077
90,0.296875,0.9443359375,0.243408203125,0.640869140625,2.9296875,-0.152587890625,116.65074595543345,87.77988400488401,-12.22588141025641
91,0.29150390625,0.9453125,0.25390625,0.0,1.617431640625,-0.885009765625,115.22164033882783,87.423778998779,-11.53709935897436
92,0.284423828125,0.94140625,0.251708984375,0.48828125,2.50244140625,-0.640869140625,113.79253472222221,86.35546398046397,-11.53709935897436
93,0.295654296875,0.94287109375,0.24658203125,0.579833984375,1.312255859375,-0.030517578125,114.68572573260073,85.82130647130647,-12.398076923076921
94,0.288818359375,0.946044921875,0.2578125,0.244140625,1.007080078125,-0.518798828125,115.57891674297925,86.35546398046397,-10.848317307692309
95,0.288818359375,0.944091796875,0.2431640625,0.885009765625,2.44140625,-0.48828125,116.29346955128206,87.423778998779,-11.192708333333332
96,0.287109375,0.940185546875,0.2509765625,0.335693359375,1.953125,-0.396728515625,114.86436393467642,87.77988400488401,-11.53709935897436
97,0.28564453125,0.9404296875,0.252197265625,0.762939453125,3.0517578125,-0.274658203125,113.61389652014653,86.17741147741148,-11.02051282051282
98,0.285400390625,0.946044921875,0.252685546875,0.335693359375,2.3193359375,-0.48828125,114.50708753052503,86.35546398046397,-11.192708333333332
99,0.2900390625,0.944091796875,0.2587890625,0.42724609375,4.791259765625,-0.030517578125,115.57891674297925,87.067673992674,-11.881490384615383
100,0.293701171875,0.9443359375,0.24560546875,0.18310546875,2.349853515625,-0.48828125,115.57891674297925,87.423778998779,-11.53709935897436
101,0.28955078125,0.943359375,0.255126953125,-0.152587890625,1.5869140625,-0.274658203125,113.79253472222221,87.423778998779,-11.192708333333332
102,0.2890625,0.9423828125,0.25146484375,0.30517578125,3.509521484375,-0.18310546875,115.40027854090354,85.82130647130647,-11.364903846153847
103,0.292724609375,0.94677734375,0.256103515625,0.396728515625,1.8310546875,-0.18310546875,115.04300213675214,86.53351648351648,-11.02051282051282
104,0.2900390625,0.949462890625,0.2451171875,0.42724609375,1.77001953125,0.152587890625,116.65074595543345,87.77988400488401,-11.53709935897436
105,0.292236328125,0.942626953125,0.24560546875,1.007080078125,4.364013671875,0.823974609375,113.43525831807081,88.13598901098901,-10.848317307692309
106,0.297119140625,0.939697265625,0.2431640625,0.42724609375,-0.67138671875,0.457763671875,115.40027854090354,87.9579365079365,-12.053685897435898
107,0.3046875,0.94580078125,0.248291015625,0.213623046875,-0.274658203125,0.3662109375,114.14981112637362,87.067673992674,-11.53709935897436
108,0.291259765625,0.944091796875,0.2431640625,1.03759765625,2.8076171875,0.48828125,115.22164033882783,85.99935897435897,-12.91466346153846
109,0.313720703125,0.931640625,0.242919921875,0.1220703125,-2.38037109375,-0.274658203125,113.97117292429793,88.6701465201465,-9.642948717948718
110,0.311767578125,0.9462890625,0.240478515625,0.579833984375,3.692626953125,0.335693359375,114.14981112637362,88.13598901098901,-11.192708333333332
111,0.29736328125,0.94384765625,0.2412109375,-0.06103515625,1.953125,-0.48828125,115.75755494505493,87.24572649572649,-11.364903846153847
112,0.3056640625,0.941162109375,0.241943359375,0.640869140625,3.936767578125,-0.213623046875,114.50708753052503,86.35546398046397,-11.192708333333332
113,0.298095703125,0.94189453125,0.253173828125,-0.091552734375,1.556396484375,-0.396728515625,114.86436393467642,87.067673992674,-11.192708333333332
114,0.300537109375,0.94189453125,0.248779296875,0.54931640625,3.35693359375,-0.152587890625,115.22164033882783,86.35546398046397,-12.570272435897436
115,0.3037109375,0.942138671875,0.2470703125,-0.06103515625,1.007080078125,-0.213623046875,113.61389652014653,86.17741147741148,-10.33173076923077
116,0.30419921875,0.93896484375,0.25341796875,0.518798828125,0.8544921875,-0.213623046875,115.04300213675214,86.88962148962149,-10.676121794871793
117,0.31103515625,0.936767578125,0.240478515625,1.068115234375,0.732421875,-1.190185546875,115.04300213675214,87.6018315018315,-12.398076923076921
118,0.285888671875,0.9365234375,0.23681640625,0.640869140625,7.049560546875,-0.54931640625,113.61389652014653,85.46520146520146,-11.364903846153847
119,0.316650390625,0.93896484375,0.231689453125,-0.48828125,3.35693359375,-1.5869140625,115.22164033882783,87.423778998779,-10.848317307692309
120,0.281005859375,0.941162109375,0.262451171875,0.213623046875,2.899169921875,-0.30517578125,114.86436393467642,87.423778998779,-12.22588141025641
121,0.291259765625,0.947998046875,0.2470703125,0.18310546875,3.326416015625,-0.701904296875,114.68572573260073,86.17741147741148,-12.053685897435898
122,0.293212890625,0.946044921875,0.25048828125,0.3662109375,1.922607421875,0.335693359375,115.04300213675214,86.88962148962149,-12.398076923076921
123,0.294921875,0.943115234375,0.2431640625,0.0,0.732421875,0.06103515625,114.50708753052503,87.423778998779,-10.503926282051282
124,0.29541015625,0.947509765625,0.2470703125,0.3662109375,2.777099609375,-0.48828125,115.40027854090354,86.17741147741148,-12.742467948717948
125,0.29833984375,0.94873046875,0.247314453125,0.0,2.838134765625,-0.3662109375,116.47210775335775,86.88962148962149,-11.364903846153847
126,0.29541015625,0.9423828125,0.25048828125,0.67138671875,2.62451171875,-0.244140625,115.22164033882783,88.49209401709402,-11.192708333333332
127,0.2939453125,0.9580078125,0.244873046875,0.274658203125,4.7607421875,-0.1220703125,116.29346955128206,86.35546398046397,-11.881490384615383
128,0.27734375,0.9384765625,0.26416015625,-0.152587890625,1.953125,-0.518798828125,114.50708753052503,87.77988400488401,-11.881490384615383
129,0.30224609375,0.945556640625,0.2470703125,1.0986328125,3.23486328125,0.1220703125,114.68572573260073,87.6018315018315,-11.364903846153847
130,0.29638671875,0.94677734375,0.24755859375,-0.30517578125,-0.18310546875,0.06103515625,116.29346955128206,87.423778998779,-11.192708333333332
131,0.295166015625,0.95068359375,0.255615234375,0.274658203125,3.11279296875,-0.030517578125,113.97117292429793,87.6018315018315,-11.70929487179487
132,0.299560546875,0.933349609375,0.25732421875,0.091552734375,2.410888671875,-0.091552734375,114.68572573260073,86.88962148962149,-10.676121794871793
133,0.29638671875,0.9462890625,0.2451171875,0.6103515625,2.655029296875,0.1220703125,115.22164033882783,86.71156898656899,-12.22588141025641
134,0.290771484375,0.9423828125,0.253662109375,-0.30517578125,4.241943359375,-0.152587890625,115.40027854090354,87.24572649572649,-12.742467948717948
135,0.297119140625,0.943359375,0.257080078125,0.18310546875,1.89208984375,-0.030517578125,115.57891674297925,87.423778998779,-10.503926282051282
136,0.293212890625,0.943115234375,0.253662109375,-0.1220703125,2.0751953125,-0.274658203125,114.86436393467642,87.423778998779,-11.53709935897436
137,0.296142578125,0.943359375,0.248046875,0.396728515625,2.44140625,-0.457763671875,115.22164033882783,87.067673992674,-10.848317307692309
138,0.2939453125,0.94189453125,0.253662109375,0.54931640625,0.885009765625,-0.244140625,115.75755494505493,86.88962148962149,-11.70929487179487
139,0.29833984375,0.94921875,0.2490234375,0.274658203125,2.471923828125,-0.091552734375,114.68572573260073,86.17741147741148,-11.364903846153847
140,0.29345703125,0.946044921875,0.2548828125,0.335693359375,-1.03759765625,-0.18310546875,114.14981112637362,87.423778998779,-12.91466346153846
141,0.29931640625,0.939453125,0.2509765625,1.5869140625,3.96728515625,-0.518798828125,115.22164033882783,87.423778998779,-12.570272435897436
142,0.306396484375,0.94970703125,0.23583984375,0.335693359375,3.11279296875,-1.312255859375,112.72070550976801,86.35546398046397,-11.192708333333332
143,0.287353515625,0.9462890625,0.251953125,-0.1220703125,1.251220703125,-0.54931640625,116.47210775335775,86.53351648351648,-11.70929487179487
144,0.298095703125,0.942626953125,0.24169921875,0.9765625,4.302978515625,-0.457763671875,116.11483134920634,86.53351648351648,-12.053685897435898
145,0.27978515625,0.94482421875,0.24755859375,0.335693359375,3.41796875,-0.762939453125,114.86436393467642,88.13598901098901,-12.570272435897436
146,0.2900390625,0.943359375,0.248779296875,0.732421875,2.99072265625,-0.42724609375,114.86436393467642,87.77988400488401,-10.159535256410257
147,0.29296875,0.944091796875,0.25390625,0.732421875,2.593994140625,-0.518798828125,115.57891674297925,87.77988400488401,-12.22588141025641
148,0.286865234375,0.944091796875,0.24072265625,-0.1220703125,1.068115234375,-0.457763671875,113.43525831807081,86.35546398046397,-12.570272435897436
149,0.291748046875,0.942626953125,0.25244140625,0.152587890625,3.60107421875,-0.274658203125,114.68572573260073,88.6701465201465,-10.33173076923077
150,0.288330078125,0.934326171875,0.239013671875,0.396728515625,2.9296875,-0.48828125,115.75755494505493,86.88962148962149,-11.70929487179487
151,0.2919921875,0.942626953125,0.24951171875,-0.06103515625,0.67138671875,-0.18310546875,114.86436393467642,86.71156898656899,-12.91466346153846
152,0.28759765625,0.9365234375,0.24951171875,0.579833984375,3.11279296875,-0.48828125,116.29346955128206,86.35546398046397,-11.881490384615383
153,0.287109375,0.94287109375,0.26025390625,-0.457763671875,1.64794921875,-0.091552734375,116.11483134920634,87.9579365079365,-12.053685897435898
154,0.290283203125,0.9453125,0.25146484375,0.762939453125,2.50244140625,0.091552734375,115.93619314713065,87.067673992674,-12.22588141025641
155,0.287841796875,0.943359375,0.247802734375,-0.06103515625,2.62451171875,0.213623046875,113.79253472222221,87.067673992674,-10.503926282051282
156,0.2939453125,0.939208984375,0.25537109375,0.06103515625,1.922607421875,-0.3662109375,114.86436393467642,85.99935897435897,-11.192708333333332
157,0.290771484375,0.943603515625,0.251953125,0.457763671875,2.288818359375,0.48828125,115.04300213675214,86.53351648351648,-12.398076923076921
158,0.29833984375,0.94873046875,0.2490234375,0.396728515625,1.312255859375,0.67138671875,115.57891674297925,87.067673992674,-11.881490384615383
159,0.292724609375,0.94482421875,0.25390625,0.42724609375,3.753662109375,0.30517578125,115.04300213675214,88.6701465201465,-10.676121794871793
160,0.29736328125,0.937255859375,0.259765625,0.030517578125,0.885009765625,-0.457763671875,115.57891674297925,87.423778998779,-12.22588141025641
161,0.2998046875,0.94677734375,0.23974609375,0.640869140625,2.777099609375,-0.30517578125,113.07798191391942,85.99935897435897,-10.848317307692309
162,0.29150390625,0.94873046875,0.243408203125,0.213623046875,1.52587890625,-0.030517578125,115.57891674297925,87.423778998779,-11.881490384615383
163,0.3037109375,0.938720703125,0.2470703125,0.213623046875,2.62451171875,-0.091552734375,115.75755494505493,87.6018315018315,-10.676121794871793
164,0.298095703125,0.93798828125,0.2548828125,-0.030517578125,0.518798828125,-0.91552734375,115.75755494505493,86.17741147741148,-12.053685897435898
165,0.291259765625,0.9453125,0.2568359375,0.8544921875,3.875732421875,-0.18310546875,115.75755494505493,86.17741147741148,-11.70929487179487
166,0.302978515625,0.937744140625,0.249267578125,0.6103515625,1.190185546875,-0.18310546875,115.75755494505493,86.53351648351648,-10.676121794871793
167,0.28662109375,0.937744140625,0.257568359375,0.0,3.387451171875,-0.885009765625,115.75755494505493,86.17741147741148,-12.053685897435898
168,0.293701171875,0.94482421875,0.2490234375,0.640869140625,2.5634765625,-0.6103515625,113.07798191391942,85.99935897435897,-11.881490384615383
169,0.289306640625,0.9462890625,0.25,0.42724609375,1.495361328125,-0.396728515625,114.68572573260073,86.53351648351648,-11.364903846153847
170,0.291259765625,0.9423828125,0.251953125,0.579833984375,2.899169921875,-0.67138671875,116.29346955128206,88.49209401709402,-11.192708333333332
171,0.28955078125,0.940673828125,0.251953125,0.42724609375,2.0751953125,-0.701904296875,115.22164033882783,87.423778998779,-11.192708333333332
172,0.293701171875,0.93994140625,0.2490234375,0.48828125,2.471923828125,-0.30517578125,116.29346955128206,86.71156898656899,-11.192708333333332
173,0.2880859375,0.94140625,0.257568359375,0.30517578125,3.326416015625,-0.457763671875,115.40027854090354,85.82130647130647,-11.364903846153847
174,0.291015625,0.945068359375,0.2529296875,0.518798828125,2.227783203125,-0.48828125,115.40027854090354,88.3140415140415,-11.02051282051282
175,0.290283203125,0.947265625,0.252197265625,0.30517578125,4.150390625,0.06103515625,115.93619314713065,85.99935897435897,-11.881490384615383
176,0.289794921875,0.942626953125,0.25244140625,0.67138671875,2.349853515625,-0.42724609375,115.75755494505493,87.6018315018315,-10.676121794871793
177,0.29443359375,0.947265625,0.25146484375,-0.213623046875,1.617431640625,-0.579833984375,115.57891674297925,86.71156898656899,-11.881490384615383
178,0.29248046875,0.943359375,0.254638671875,0.335693359375,2.50244140625,-0.335693359375,115.40027854090354,87.6018315018315,-12.053685897435898
179,0.293212890625,0.945556640625,0.24462890625,0.213623046875,2.86865234375,0.18310546875,115.40027854090354,86.88962148962149,-10.33173076923077
180,0.299072265625,0.94140625,0.253173828125,-1.068115234375,0.67138671875,-0.30517578125,115.75755494505493,87.6018315018315,-12.053685897435898
181,0.285400390625,0.939697265625,0.251708984375,1.007080078125,3.47900390625,-0.06103515625,113.97117292429793,87.9579365079365,-10.676121794871793
182,0.2861328125,0.94384765625,0.261962890625,0.640869140625,1.800537109375,0.030517578125,116.11483134920634,87.9579365079365,-11.02051282051282
183,0.294677734375,0.9423828125,0.257080078125,0.518798828125,2.5634765625,-0.18310546875,116.29346955128206,86.35546398046397,-12.570272435897436
184,0.289794921875,0.943603515625,0.2568359375,0.946044921875,1.983642578125,0.0,113.61389652014653,87.24572649572649,-11.02051282051282
185,0.283447265625,0.943603515625,0.255126953125,0.30517578125,2.44140625,-0.579833984375,114.14981112637362,87.423778998779,-11.192708333333332
186,0.29150390625,0.94189453125,0.25927734375,0.54931640625,3.082275390625,-0.244140625,117.36529876373626,87.423778998779,-12.91466346153846
187,0.298095703125,0.9462890625,0.25048828125,0.18310546875,3.173828125,-0.640869140625,116.11483134920634,86.53351648351648,-10.676121794871793
188,0.283447265625,0.947998046875,0.265380859375,0.244140625,-1.434326171875,-0.48828125,115.57891674297925,87.067673992674,-11.881490384615383
189,0.30224609375,0.946044921875,0.248291015625,1.40380859375,4.150390625,-0.213623046875,114.86436393467642,88.49209401709402,-11.881490384615383
190,0.2890625,0.937744140625,0.258056640625,0.54931640625,-0.396728515625,-0.9765625,115.04300213675214,87.24572649572649,-11.70929487179487
191,0.304443359375,0.94091796875,0.240234375,0.457763671875,1.617431640625,-0.335693359375,114.86436393467642,86.71156898656899,-11.881490384615383
192,0.29150390625,0.942138671875,0.246826171875,0.48828125,2.777099609375,-0.457763671875,115.75755494505493,87.6018315018315,-11.364903846153847
193,0.28564453125,0.945068359375,0.258544921875,0.42724609375,2.655029296875,-0.9765625,115.22164033882783,87.423778998779,-11.192708333333332
194,0.291748046875,0.944091796875,0.247802734375,0.518798828125,1.678466796875,-0.518798828125,115.22164033882783,88.13598901098901,-12.22588141025641
195,0.288330078125,0.94580078125,0.250244140625,0.518798828125,2.3193359375,0.1220703125,114.50708753052503,87.067673992674,-11.53709935897436
196,0.2880859375,0.943359375,0.258544921875,-0.06103515625,3.265380859375,0.06103515625,114.86436393467642,86.71156898656899,-11.192708333333332
197,0.302978515625,0.9384765625,0.24072265625,0.18310546875,3.90625,-0.213623046875,115.93619314713065,86.35546398046397,-12.22588141025641
198,0.2861328125,0.9453125,0.256591796875,0.274658203125,1.922607421875,0.1220703125,115.40027854090354,86.53351648351648,-11.364903846153847
199,0.29052734375,0.940185546875,0.2529296875,0.335693359375,2.960205078125,-0.18310546875,115.40027854090354,86.88962148962149,-10.676121794871793
200,0.294189453125,0.9375,0.24609375,0.30517578125,2.593994140625,-0.79345703125,115.04300213675214,86.17741147741148,-11.364903846153847
201,0.287353515625,0.946533203125,0.2509765625,1.03759765625,3.2958984375,0.06103515625,115.93619314713065,86.71156898656899,-11.881490384615383
202,0.288330078125,0.9462890625,0.24853515625,0.9765625,3.631591796875,-0.06103515625,115.04300213675214,86.17741147741148,-12.053685897435898
203,0.29443359375,0.939453125,0.248779296875,0.152587890625,2.105712890625,0.0,115.40027854090354,87.24572649572649,-10.676121794871793
204,0.2939453125,0.945556640625,0.255859375,0.732421875,2.3193359375,0.091552734375,115.57891674297925,86.71156898656899,-11.53709935897436
205,0.294921875,0.93994140625,0.26123046875,0.244140625,2.655029296875,-0.732421875,115.22164033882783,85.64325396825396,-11.881490384615383
206,0.30078125,0.944091796875,0.244384765625,0.274658203125,2.532958984375,0.0,116.11483134920634,87.9579365079365,-12.053685897435898
207,0.2841796875,0.9462890625,0.260986328125,-0.091552734375,2.38037109375,-0.457763671875,115.40027854090354,86.53351648351648,-11.364903846153847
208,0.291259765625,0.948974609375,0.25,0.518798828125,2.38037109375,0.091552734375,113.07798191391942,86.35546398046397,-12.91466346153846
209,0.2939453125,0.943359375,0.245849609375,0.3662109375,2.227783203125,-0.1220703125,116.47210775335775,87.6018315018315,-12.398076923076921
210,0.28955078125,0.93701171875,0.25537109375,0.06103515625,0.6103515625,-0.213623046875,114.68572573260073,87.6018315018315,-11.364903846153847
211,0.29052734375,0.941650390625,0.25,0.48828125,3.72314453125,0.0,115.75755494505493,87.6018315018315,-11.70929487179487
212,0.293701171875,0.942138671875,0.24951171875,0.030517578125,2.13623046875,-0.48828125,115.57891674297925,88.13598901098901,-11.53709935897436
213,0.28271484375,0.943115234375,0.255126953125,0.54931640625,1.708984375,-0.213623046875,115.22164033882783,87.423778998779,-12.22588141025641
214,0.298095703125,0.94287109375,0.261474609375,0.152587890625,1.15966796875,-0.8544921875,115.93619314713065,86.71156898656899,-11.192708333333332
215,0.287841796875,0.94287109375,0.2646484375,0.732421875,0.274658203125,-0.335693359375,115.40027854090354,86.17741147741148,-12.398076923076921
216,0.29833984375,0.951416015625,0.258056640625,0.640869140625,2.655029296875,-0.244140625,113.97117292429793,86.88962148962149,-11.364903846153847
217,0.291259765625,0.94384765625,0.257080078125,0.18310546875,1.77001953125,-0.640869140625,115.04300213675214,87.24572649572649,-11.364903846153847
218,0.299560546875,0.9423828125,0.247802734375,1.068115234375,2.044677734375,-0.640869140625,115.75755494505493,86.53351648351648,-11.364903846153847
219,0.28271484375,0.94091796875,0.251708984375,0.579833984375,3.814697265625,-0.732421875,115.57891674297925,86.71156898656899,-11.881490384615383
220,0.290283203125,0.944091796875,0.25146484375,0.30517578125,1.40380859375,-0.335693359375,115.93619314713065,87.77988400488401,-10.159535256410257
221,0.28369140625,0.9423828125,0.255859375,0.335693359375,1.5869140625,-0.762939453125,115.04300213675214,85.82130647130647,-11.70929487179487
222,0.287353515625,0.9462890625,0.25146484375,0.3662109375,3.23486328125,0.0,115.04300213675214,89.02625152625153,-10.676121794871793
223,0.290771484375,0.946533203125,0.244873046875,0.48828125,3.265380859375,-0.274658203125,115.04300213675214,87.24572649572649,-10.676121794871793
224,0.28466796875,0.947509765625,0.25830078125,0.42724609375,2.0751953125,-0.213623046875,114.32844932844932,87.9579365079365,-11.70929487179487
225,0.295166015625,0.947509765625,0.250732421875,0.640869140625,3.72314453125,-0.1220703125,116.47210775335775,85.82130647130647,-11.364903846153847
226,0.288330078125,0.935302734375,0.25634765625,0.06103515625,1.77001953125,-0.640869140625,115.57891674297925,87.77988400488401,-11.192708333333332
227,0.293212890625,0.946533203125,0.2490234375,0.42724609375,1.40380859375,0.244140625,114.86436393467642,87.77988400488401,-11.192708333333332
228,0.283935546875,0.94482421875,0.2587890625,-0.030517578125,3.41796875,-0.030517578125,115.75755494505493,87.6018315018315,-11.02051282051282
229,0.285400390625,0.943115234375,0.247802734375,0.640869140625,2.50244140625,-0.3662109375,115.75755494505493,87.6018315018315,-11.70929487179487
230,0.289794921875,0.94384765625,0.261962890625,0.030517578125,2.3193359375,-0.3662109375,115.40027854090354,86.53351648351648,-11.70929487179487
231,0.29638671875,0.94873046875,0.25048828125,0.396728515625,2.50244140625,-0.18310546875,117.18666056166055,86.88962148962149,-11.70929487179487
232,0.281982421875,0.945556640625,0.25537109375,0.79345703125,2.74658203125,0.1220703125,115.75755494505493,87.6018315018315,-11.364903846153847
233,0.286376953125,0.94140625,0.252197265625,0.54931640625,2.960205078125,-0.213623046875,115.57891674297925,87.067673992674,-13.259054487179487
234,0.28466796875,0.9404296875,0.244873046875,-0.152587890625,2.99072265625,-0.152587890625,114.68572573260073,88.3140415140415,-13.086858974358975
235,0.29833984375,0.94189453125,0.252685546875,-0.06103515625,1.434326171875,-0.457763671875,115.40027854090354,86.88962148962149,-12.742467948717948
236,0.283203125,0.947021484375,0.2548828125,0.1220703125,2.288818359375,-0.244140625,115.57891674297925,86.35546398046397,-10.503926282051282
237,0.29638671875,0.9384765625,0.248779296875,0.54931640625,3.814697265625,-0.091552734375,113.97117292429793,87.9579365079365,-11.02051282051282
238,0.287841796875,0.941162109375,0.25244140625,0.48828125,1.8310546875,-0.579833984375,115.40027854090354,87.6018315018315,-12.053685897435898
239,0.293212890625,0.944091796875,0.259033203125,0.640869140625,1.434326171875,0.18310546875,115.93619314713065,86.35546398046397,-11.881490384615383
240,0.28662109375,0.945068359375,0.256591796875,0.732421875,1.8310546875,-0.18310546875,115.04300213675214,88.6701465201465,-11.70929487179487
241,0.29296875,0.9443359375,0.248046875,1.03759765625,2.960205078125,-0.42724609375,115.57891674297925,87.77988400488401,-10.848317307692309
242,0.2919921875,0.941650390625,0.250244140625,0.30517578125,1.220703125,-0.579833984375,116.47210775335775,86.88962148962149,-11.02051282051282
243,0.282958984375,0.947021484375,0.25146484375,1.068115234375,3.997802734375,-0.335693359375,115.04300213675214,86.88962148962149,-11.70929487179487
244,0.291259765625,0.943115234375,0.246337890625,0.579833984375,1.617431640625,-0.457763671875,115.93619314713065,87.067673992674,-12.22588141025641
245,0.2880859375,0.947021484375,0.242431640625,0.48828125,0.885009765625,-0.42724609375,115.40027854090354,86.53351648351648,-11.70929487179487
246,0.299560546875,0.943603515625,0.23974609375,0.42724609375,2.655029296875,-0.06103515625,114.68572573260073,87.9579365079365,-11.02051282051282
247,0.2900390625,0.941650390625,0.24609375,0.67138671875,0.67138671875,-0.457763671875,115.04300213675214,85.46520146520146,-12.398076923076921
248,0.282470703125,0.943359375,0.25244140625,0.274658203125,3.60107421875,-0.42724609375,117.00802235958486,88.49209401709402,-12.91466346153846
249,0.291748046875,0.93994140625,0.2451171875,0.152587890625,1.922607421875,0.0,117.00802235958486,85.99935897435897,-11.192708333333332
250,0.285400390625,0.94482421875,0.263427734375,0.244140625,3.448486328125,-0.335693359375,115.93619314713065,85.99935897435897,-11.881490384615383
251,0.282470703125,0.9453125,0.249267578125,0.79345703125,1.556396484375,0.18310546875,116.11483134920634,86.53351648351648,-11.70929487179487
252,0.2890625,0.94384765625,0.25244140625,0.396728515625,3.143310546875,-0.152587890625,115.75755494505493,86.88962148962149,-11.70929487179487
253,0.293701171875,0.94580078125,0.2470703125,0.457763671875,2.44140625,-0.091552734375,115.04300213675214,87.6018315018315,-12.742467948717948
254,0.2822265625,0.945068359375,0.252197265625,0.1220703125,2.044677734375,-0.54931640625,116.29346955128206,87.067673992674,-12.570272435897436
255,0.290283203125,0.946044921875,0.248291015625,0.48828125,2.86865234375,0.274658203125,115.57891674297925,86.71156898656899,-12.22588141025641
256,0.2919921875,0.935791015625,0.25244140625,-0.030517578125,2.410888671875,-0.396728515625,115.22164033882783,88.13598901098901,-11.881490384615383
257,0.287109375,0.943359375,0.253662109375,0.42724609375,1.8310546875,-0.091552734375,115.75755494505493,87.9579365079365,-11.364903846153847
258,0.2861328125,0.945556640625,0.2607421875,0.335693359375,4.08935546875,-0.335693359375,115.57891674297925,88.13598901098901,-12.22588141025641
259,0.299560546875,0.9423828125,0.24462890625,0.30517578125,1.708984375,-0.244140625,116.65074595543345,87.423778998779,-13.259054487179487
260,0.28857421875,0.947021484375,0.2548828125,0.213623046875,1.8310546875,-0.030517578125,116.11483134920634,86.17741147741148,-13.086858974358975
261,0.28564453125,0.947021484375,0.255615234375,0.579833984375,3.204345703125,-0.1220703125,114.50708753052503,85.99935897435897,-11.881490384615383
262,0.291259765625,0.9384765625,0.265869140625,0.732421875,2.960205078125,-0.457763671875,116.29346955128206,87.067673992674,-11.192708333333332
263,0.286865234375,0.943603515625,0.250732421875,0.42724609375,1.495361328125,0.0,115.22164033882783,87.067673992674,-11.881490384615383
264,0.289306640625,0.945068359375,0.260498046875,0.732421875,2.410888671875,-0.06103515625,115.40027854090354,85.82130647130647,-12.398076923076921
265,0.289306640625,0.94775390625,0.253173828125,0.762939453125,2.86865234375,-0.18310546875,114.86436393467642,86.35546398046397,-11.192708333333332
266,0.293701171875,0.941650390625,0.2587890625,0.1220703125,1.129150390625,-0.396728515625,115.22164033882783,88.13598901098901,-12.22588141025641
267,0.28369140625,0.94384765625,0.2568359375,0.8544921875,2.13623046875,-0.42724609375,115.57891674297925,87.067673992674,-11.53709935897436
268,0.29248046875,0.947021484375,0.2509765625,0.030517578125,1.15966796875,-0.3662109375,115.22164033882783,87.423778998779,-11.881490384615383
269,0.285888671875,0.941650390625,0.257080078125,0.152587890625,2.38037109375,-0.579833984375,115.22164033882783,87.067673992674,-11.881490384615383
270,0.293212890625,0.9443359375,0.25537109375,0.244140625,1.28173828125,-0.213623046875,114.50708753052503,88.84819902319902,-11.881490384615383
271,0.283203125,0.943359375,0.25048828125,0.42724609375,2.899169921875,-0.335693359375,116.82938415750915,88.3140415140415,-12.398076923076921
272,0.290771484375,0.942138671875,0.250732421875,0.42724609375,2.166748046875,-0.54931640625,116.11483134920634,86.17741147741148,-11.70929487179487
273,0.284912109375,0.946533203125,0.258544921875,0.732421875,2.349853515625,-0.274658203125,116.47210775335775,86.53351648351648,-11.70929487179487
274,0.281982421875,0.936767578125,0.262939453125,1.068115234375,1.922607421875,-0.48828125,117.18666056166055,87.6018315018315,-10.676121794871793
275,0.2939453125,0.94921875,0.24560546875,0.762939453125,3.2958984375,-0.091552734375,114.86436393467642,86.35546398046397,-11.53709935897436
276,0.279296875,0.939208984375,0.25146484375,0.79345703125,4.302978515625,-0.244140625,115.40027854090354,87.24572649572649,-12.398076923076921
277,0.302734375,0.94580078125,0.240966796875,-0.244140625,4.119873046875,-0.6103515625,114.32844932844932,87.9579365079365,-11.70929487179487
278,0.27392578125,0.943603515625,0.260009765625,-0.213623046875,2.01416015625,-0.42724609375,114.68572573260073,87.6018315018315,-11.70929487179487
279,0.29443359375,0.944580078125,0.256103515625,0.8544921875,0.640869140625,0.30517578125,115.75755494505493,87.6018315018315,-13.086858974358975
280,0.279541015625,0.94580078125,0.26416015625,0.6103515625,1.739501953125,0.3662109375,115.40027854090354,86.53351648351648,-11.364903846153847
281,0.294921875,0.941162109375,0.25390625,0.48828125,2.38037109375,-0.396728515625,116.11483134920634,86.88962148962149,-11.70929487179487
282,0.29052734375,0.94580078125,0.255615234375,0.3662109375,3.662109375,-0.18310546875,115.75755494505493,87.9579365079365,-11.02051282051282
283,0.28662109375,0.9404296875,0.260498046875,0.091552734375,2.44140625,-0.6103515625,115.93619314713065,87.423778998779,-12.22588141025641
284,0.2890625,0.943359375,0.258056640625,0.457763671875,2.74658203125,-0.274658203125,115.40027854090354,87.6018315018315,-12.398076923076921
285,0.28369140625,0.94775390625,0.252197265625,-0.091552734375,2.532958984375,-0.091552734375,115.93619314713065,87.067673992674,-12.22588141025641
286,0.296630859375,0.942138671875,0.251220703125,0.06103515625,0.67138671875,-0.48828125,115.04300213675214,86.17741147741148,-12.053685897435898
287,0.286376953125,0.94287109375,0.263671875,0.518798828125,2.197265625,-0.091552734375,115.40027854090354,86.88962148962149,-12.398076923076921
288,0.2822265625,0.94384765625,0.266357421875,0.213623046875,2.25830078125,0.030517578125,115.22164033882783,87.423778998779,-11.881490384615383
289,0.303955078125,0.947021484375,0.25439453125,0.244140625,0.457763671875,-0.48828125,117.18666056166055,86.17741147741148,-13.086858974358975
290,0.2822265625,0.943359375,0.25732421875,0.3662109375,2.62451171875,-0.48828125,115.40027854090354,87.9579365079365,-12.742467948717948
291,0.28759765625,0.94873046875,0.26025390625,0.396728515625,0.335693359375,-0.396728515625,115.04300213675214,87.24572649572649,-11.364903846153847
292,0.2900390625,0.94384765625,0.248779296875,1.495361328125,2.105712890625,-0.1220703125,115.22164033882783,87.77988400488401,-11.192708333333332
293,0.2880859375,0.93701171875,0.25732421875,0.030517578125,3.021240234375,-0.91552734375,114.86436393467642,87.423778998779,-11.192708333333332
294,0.298095703125,0.94482421875,0.24609375,0.213623046875,0.30517578125,-1.03759765625,115.93619314713065,87.423778998779,-10.503926282051282
295,0.284423828125,0.948974609375,0.252197265625,0.762939453125,2.9296875,-0.030517578125,115.75755494505493,86.53351648351648,-11.70929487179487
296,0.290771484375,0.940673828125,0.25439453125,-0.579833984375,1.129150390625,-1.129150390625,115.75755494505493,86.88962148962149,-11.364903846153847
297,0.28369140625,0.94482421875,0.24169921875,1.3427734375,4.791259765625,-0.1220703125,115.93619314713065,88.13598901098901,-11.192708333333332
298,0.302978515625,0.93701171875,0.2470703125,-0.1220703125,3.23486328125,-0.518798828125,114.86436393467642,87.067673992674,-11.192708333333332
299,0.293701171875,0.93798828125,0.249267578125,0.457763671875,2.044677734375,-0.640869140625,116.11483134920634,86.88962148962149,-11.70929487179487
300,0.282470703125,0.9453125,0.2529296875,0.06103515625,3.11279296875,0.06103515625,115.04300213675214,86.17741147741148,-11.70929487179487
301,0.2919921875,0.943359375,0.257080078125,-0.244140625,1.556396484375,-0.640869140625,116.29346955128206,87.77988400488401,-11.881490384615383
302,0.28076171875,0.94140625,0.25732421875,0.274658203125,1.983642578125,-0.6103515625,114.86436393467642,85.99935897435897,-10.159535256410257
303,0.293212890625,0.943359375,0.260986328125,-0.335693359375,-1.64794921875,-1.007080078125,114.50708753052503,86.35546398046397,-11.53709935897436
304,0.297607421875,0.94189453125,0.25927734375,0.152587890625,-2.349853515625,-2.38037109375,115.93619314713065,86.71156898656899,-11.53709935897436
305,0.2919921875,0.9580078125,0.26513671875,-3.753662109375,2.655029296875,-2.227783203125,115.04300213675214,85.46520146520146,-11.02051282051282
306,0.317626953125,0.950927734375,0.265625,-5.096435546875,-7.50732421875,-2.838134765625,117.18666056166055,87.6018315018315,-11.364903846153847
307,0.2587890625,0.931640625,0.273681640625,-8.72802734375,-7.659912109375,-4.82177734375,115.40027854090354,87.24572649572649,-8.265384615384615
308,0.283447265625,0.96484375,0.27197265625,-8.697509765625,-28.38134765625,-12.87841796875,118.25848977411478,86.17741147741148,-7.920993589743589
309,0.314453125,0.926513671875,0.243408203125,-22.735595703125,3.021240234375,-13.336181640625,119.68759539072039,85.82130647130647,-3.788301282051282
310,0.270263671875,0.93896484375,0.333984375,-16.7236328125,3.96728515625,-8.148193359375,120.22350999694748,87.067673992674,-3.616105769230769
311,0.312744140625,0.874755859375,0.266845703125,-8.636474609375,-2.50244140625,5.7373046875,123.43899763431013,86.35546398046397,-2.2385416666666664
312,0.283203125,0.8828125,0.385009765625,0.213623046875,23.49853515625,24.84130859375,121.4739774114774,86.17741147741148,-3.0995192307692303
313,0.2763671875,0.862548828125,0.344970703125,12.481689453125,39.093017578125,23.101806640625,119.15168078449328,86.35546398046397,-6.026842948717949
314,0.25634765625,1.0576171875,0.485595703125,7.4462890625,51.483154296875,28.045654296875,114.68572573260073,86.53351648351648,-9.642948717948718
315,0.266845703125,0.843994140625,0.297607421875,-0.18310546875,41.07666015625,19.4091796875,112.0061527014652,86.35546398046397,-13.259054487179487
316,0.148681640625,0.943359375,0.449462890625,8.97216796875,16.693115234375,7.38525390625,112.3634291056166,84.93104395604395,-14.63661858974359
317,0.262451171875,0.88916015625,0.371337890625,6.103515625,-10.101318359375,4.852294921875,111.2915998931624,84.21883394383394,-14.981009615384615
318,0.28125,0.89013671875,0.3525390625,9.002685546875,-12.847900390625,4.150390625,110.57704708485957,84.57493894993894,-15.669791666666667
319,0.44482421875,0.9619140625,0.252685546875,26.30615234375,6.53076171875,10.162353515625,110.04113247863248,84.04078144078144,-15.153205128205128
320,0.3349609375,0.893310546875,0.319580078125,10.19287109375,28.045654296875,9.979248046875,110.04113247863248,82.61636141636141,-17.563942307692308
321,0.292724609375,0.910400390625,0.286865234375,0.213623046875,31.890869140625,0.274658203125,108.43338865995115,82.79441391941393,-19.458092948717947
322,0.27490234375,0.9482421875,0.343505859375,5.126953125,-5.55419921875,0.579833984375,108.25475045787545,82.97246642246641,-23.07419871794872
323,0.37744140625,0.873779296875,0.298828125,0.152587890625,-4.608154296875,2.685546875,108.07611225579976,82.79441391941393,-20.835657051282052
324,0.349365234375,0.9052734375,0.317138671875,-0.152587890625,-1.434326171875,3.875732421875,107.89747405372404,81.19194139194138,-21.352243589743587
325,0.372802734375,0.909912109375,0.306884765625,0.946044921875,3.143310546875,1.983642578125,107.71883585164835,81.72609890109891,-21.180048076923075
326,0.36083984375,0.884033203125,0.307373046875,1.953125,10.07080078125,4.669189453125,106.28973023504274,82.0822039072039,-20.146874999999998
327,0.35693359375,0.917236328125,0.29052734375,2.99072265625,4.33349609375,3.47900390625,106.28973023504274,81.01388888888889,-22.213221153846153
328,0.40966796875,0.891845703125,0.279052734375,10.467529296875,2.62451171875,2.960205078125,106.28973023504274,81.36999389499388,-21.180048076923075
329,0.385986328125,0.895263671875,0.2861328125,6.40869140625,7.049560546875,1.129150390625,105.39653922466422,80.83583638583639,-22.385416666666664
330,0.35888671875,0.91162109375,0.269775390625,8.453369140625,12.63427734375,1.220703125,106.64700663919415,81.01388888888889,-23.935176282051284
331,0.384033203125,0.910400390625,0.27783203125,-3.936767578125,-6.195068359375,-2.655029296875,106.82564484126983,80.47973137973138,-24.107371794871796
332,0.3896484375,0.88623046875,0.241455078125,0.518798828125,6.072998046875,-4.0283203125,106.64700663919415,81.72609890109891,-23.590785256410253
333,0.36865234375,0.914306640625,0.26904296875,0.6103515625,7.232666015625,-3.082275390625,106.46836843711843,80.47973137973138,-25.140544871794873
334,0.339599609375,0.905029296875,0.2998046875,-7.049560546875,-6.195068359375,-4.791259765625,106.46836843711843,81.19194139194138,-24.796153846153842
335,0.3515625,0.911865234375,0.28515625,1.373291015625,2.838134765625,-1.617431640625,106.46836843711843,81.9041514041514,-24.45176282051282
336,0.33740234375,0.907958984375,0.30126953125,-0.18310546875,-2.777099609375,-0.9765625,107.71883585164835,81.01388888888889,-24.279567307692307
337,0.357666015625,0.908447265625,0.2744140625,2.593994140625,0.152587890625,0.06103515625,107.00428304334554,81.36999389499388,-22.213221153846153
338,0.357177734375,0.923583984375,0.280029296875,0.335693359375,-1.190185546875,0.030517578125,106.82564484126983,82.2602564102564,-22.729807692307695
339,0.368408203125,0.91162109375,0.269775390625,0.91552734375,1.983642578125,0.18310546875,107.00428304334554,82.0822039072039,-22.213221153846153
340,0.360107421875,0.90380859375,0.28076171875,1.03759765625,-0.1220703125,-0.396728515625,107.54019764957263,80.83583638583639,-22.385416666666664
341,0.362548828125,0.91943359375,0.26953125,0.48828125,-2.227783203125,-1.40380859375,108.79066506410255,82.0822039072039,-22.557612179487176
342,0.361083984375,0.912841796875,0.26220703125,0.762939453125,7.9345703125,-0.518798828125,107.54019764957263,81.5480463980464,-23.762980769230765
343,0.359130859375,0.907958984375,0.28076171875,-1.312255859375,2.25830078125,-1.251220703125,108.07611225579976,82.0822039072039,-22.902003205128207
344,0.359619140625,0.90673828125,0.272216796875,-0.213623046875,2.777099609375,-1.8310546875,108.25475045787545,83.32857142857142,-22.385416666666664
345,0.344970703125,0.91845703125,0.288330078125,0.396728515625,7.50732421875,-0.274658203125,107.00428304334554,82.43830891330892,-23.24639423076923
346,0.35595703125,0.915771484375,0.276123046875,-0.3662109375,1.251220703125,-0.640869140625,107.00428304334554,80.65778388278387,-21.524439102564102
347,0.3515625,0.912109375,0.28759765625,0.3662109375,6.40869140625,-0.732421875,107.71883585164835,82.0822039072039,-24.279567307692307
348,0.332763671875,0.906005859375,0.29052734375,0.152587890625,0.518798828125,0.152587890625,107.00428304334554,83.15051892551892,-24.62395833333333
349,0.358642578125,0.916748046875,0.2861328125,0.1220703125,3.143310546875,0.274658203125,106.82564484126983,82.61636141636141,-22.385416666666664
350,0.34912109375,0.899658203125,0.274169921875,0.213623046875,-0.213623046875,-0.396728515625,107.89747405372404,81.5480463980464,-22.729807692307695
351,0.3505859375,0.916748046875,0.284912109375,0.8544921875,2.01416015625,-0.152587890625,106.28973023504274,82.79441391941393,-22.902003205128207
352,0.357666015625,0.916748046875,0.285888671875,0.823974609375,2.838134765625,-0.396728515625,105.75381562881563,81.9041514041514,-22.04102564102564
353,0.362060546875,0.91064453125,0.275146484375,0.48828125,3.35693359375,-0.06103515625,107.00428304334554,82.0822039072039,-21.86883012820513
354,0.351318359375,0.913818359375,0.29248046875,-0.42724609375,1.28173828125,0.030517578125,107.54019764957263,82.61636141636141,-23.762980769230765
355,0.349853515625,0.911865234375,0.279052734375,0.3662109375,2.99072265625,-0.152587890625,108.25475045787545,81.9041514041514,-23.07419871794872
356,0.35107421875,0.908935546875,0.287353515625,-0.1220703125,3.326416015625,-0.701904296875,107.71883585164835,82.43830891330892,-23.935176282051284
357,0.359619140625,0.907958984375,0.292236328125,0.0,4.21142578125,-0.213623046875,108.07611225579976,83.15051892551892,-23.24639423076923
358,0.338134765625,0.908935546875,0.29638671875,-0.1220703125,2.3193359375,-0.579833984375,107.54019764957263,82.97246642246641,-22.385416666666664
359,0.3486328125,0.904541015625,0.303955078125,0.396728515625,1.495361328125,-0.9765625,108.43338865995115,82.43830891330892,-23.590785256410253
360,0.335693359375,0.909423828125,0.300048828125,0.30517578125,3.021240234375,-0.091552734375,107.18292124542124,81.5480463980464,-24.107371794871796
361,0.357666015625,0.913818359375,0.2841796875,0.213623046875,3.021240234375,-0.091552734375,107.00428304334554,81.72609890109891,-24.62395833333333
362,0.34716796875,0.909912109375,0.279296875,1.03759765625,3.021240234375,-0.244140625,107.89747405372404,80.83583638583639,-23.41858974358974
363,0.343017578125,0.9150390625,0.30029296875,-0.457763671875,1.64794921875,-0.48828125,108.61202686202687,82.97246642246641,-22.04102564102564
364,0.35302734375,0.91162109375,0.28271484375,1.220703125,3.84521484375,-0.152587890625,108.61202686202687,81.19194139194138,-22.729807692307695
365,0.33740234375,0.90576171875,0.28564453125,0.30517578125,2.777099609375,0.244140625,107.36155944749694,82.0822039072039,-23.24639423076923
366,0.34326171875,0.90576171875,0.290771484375,0.91552734375,3.7841796875,-0.06103515625,105.75381562881563,82.2602564102564,-23.07419871794872
367,0.355224609375,0.902587890625,0.2880859375,-2.62451171875,-2.655029296875,-3.5400390625,107.71883585164835,80.65778388278387,-23.935176282051284
368,0.338134765625,0.898681640625,0.304931640625,0.91552734375,3.90625,-1.77001953125,107.71883585164835,82.0822039072039,-22.902003205128207
369,0.32373046875,0.925048828125,0.289306640625,1.77001953125,5.55419921875,-0.762939453125,107.18292124542124,82.97246642246641,-23.41858974358974
370,0.33935546875,0.927734375,0.272705078125,0.8544921875,-0.213623046875,-0.640869140625,107.54019764957263,83.32857142857142,-24.45176282051282
371,0.35498046875,0.909912109375,0.2861328125,-0.79345703125,-0.54931640625,0.244140625,107.54019764957263,82.97246642246641,-21.696634615384617
372,0.33154296875,0.9130859375,0.2783203125,1.068115234375,5.92041015625,1.5869140625,108.79066506410255,82.0822039072039,-22.557612179487176
373,0.37158203125,0.916015625,0.260986328125,-0.030517578125,-4.425048828125,0.335693359375,107.36155944749694,81.72609890109891,-22.557612179487176
374,0.3388671875,0.904541015625,0.28759765625,0.8544921875,-1.190185546875,0.030517578125,108.25475045787545,83.32857142857142,-21.696634615384617
375,0.345947265625,0.891845703125,0.283203125,0.0,1.617431640625,0.030517578125,108.07611225579976,83.50662393162393,-21.524439102564102
376,0.343017578125,0.91552734375,0.280029296875,0.030517578125,5.706787109375,0.823974609375,107.18292124542124,82.97246642246641,-22.729807692307695
377,0.3369140625,0.91845703125,0.28369140625,-0.823974609375,2.838134765625,-0.1220703125,106.64700663919415,82.79441391941393,-23.590785256410253
378,0.33837890625,0.912841796875,0.283935546875,0.48828125,5.096435546875,1.220703125,108.07611225579976,83.15051892551892,-22.213221153846153
379,0.351806640625,0.915283203125,0.2998046875,-0.579833984375,-3.265380859375,-0.946044921875,107.54019764957263,81.5480463980464,-23.762980769230765
380,0.333740234375,0.903076171875,0.27783203125,0.79345703125,4.94384765625,0.701904296875,107.54019764957263,82.2602564102564,-24.107371794871796
381,0.363525390625,0.921630859375,0.26708984375,0.701904296875,3.96728515625,-0.42724609375,107.71883585164835,82.43830891330892,-23.24639423076923
382,0.3564453125,0.896484375,0.285400390625,0.79345703125,5.7373046875,-0.91552734375,107.89747405372404,82.2602564102564,-23.762980769230765
383,0.323974609375,0.91259765625,0.248291015625,0.8544921875,12.176513671875,2.0751953125,107.36155944749694,83.50662393162393,-23.935176282051284
384,0.37841796875,0.91357421875,0.2744140625,-2.655029296875,-9.674072265625,0.732421875,107.36155944749694,81.36999389499388,-23.935176282051284
385,0.35205078125,0.910888671875,0.29541015625,-0.79345703125,0.54931640625,-0.091552734375,109.32657967032966,81.9041514041514,-23.762980769230765
386,0.338623046875,0.896240234375,0.29638671875,1.129150390625,4.21142578125,-0.152587890625,106.64700663919415,82.0822039072039,-23.24639423076923
387,0.354736328125,0.915771484375,0.285400390625,1.52587890625,2.593994140625,0.18310546875,107.36155944749694,81.36999389499388,-21.86883012820513
388,0.368408203125,0.925537109375,0.294677734375,0.06103515625,0.54931640625,0.30517578125,106.46836843711843,81.19194139194138,-23.762980769230765
389,0.3525390625,0.90625,0.2939453125,-0.518798828125,1.28173828125,0.18310546875,107.00428304334554,81.72609890109891,-21.86883012820513
390,0.354736328125,0.9140625,0.28515625,1.129150390625,4.730224609375,0.1220703125,107.18292124542124,81.5480463980464,-22.385416666666664
391,0.372314453125,0.915283203125,0.27734375,0.732421875,2.410888671875,-0.823974609375,107.89747405372404,81.19194139194138,-23.41858974358974
392,0.352783203125,0.90576171875,0.292724609375,0.8544921875,5.035400390625,-1.708984375,107.18292124542124,81.9041514041514,-22.729807692307695
393,0.35107421875,0.90771484375,0.286376953125,0.091552734375,4.119873046875,-2.5634765625,106.46836843711843,82.97246642246641,-23.07419871794872
394,0.3515625,0.91552734375,0.285888671875,0.396728515625,6.988525390625,-0.885009765625,107.54019764957263,82.61636141636141,-23.07419871794872
395,0.330078125,0.918701171875,0.294921875,1.068115234375,2.105712890625,-0.030517578125,107.89747405372404,81.9041514041514,-23.41858974358974
396,0.351806640625,0.90966796875,0.276123046875,1.15966796875,5.31005859375,-0.396728515625,108.07611225579976,82.79441391941393,-23.590785256410253
397,0.33642578125,0.908447265625,0.29052734375,0.91552734375,0.152587890625,0.396728515625,106.46836843711843,82.2602564102564,-24.107371794871796
398,0.35546875,0.915283203125,0.28662109375,0.640869140625,2.0751953125,1.373291015625,107.36155944749694,82.43830891330892,-23.590785256410253
399,0.349365234375,0.907470703125,0.27587890625,1.8310546875,3.631591796875,0.18310546875,107.54019764957263,82.2602564102564,-24.796153846153842
400,0.341552734375,0.900390625,0.278564453125,1.312255859375,-2.99072265625,-0.946044921875,108.25475045787545,81.9041514041514,-22.729807692307695
401,0.400390625,0.915771484375,0.279541015625,-1.434326171875,3.35693359375,-2.227783203125,107.18292124542124,82.2602564102564,-23.762980769230765
402,0.297607421875,0.917724609375,0.30029296875,1.5869140625,13.61083984375,-0.152587890625,108.25475045787545,81.9041514041514,-24.796153846153842
403,0.347412109375,0.91015625,0.293212890625,-2.288818359375,-6.53076171875,-0.152587890625,107.71883585164835,81.72609890109891,-23.24639423076923
404,0.34619140625,0.914794921875,0.30419921875,1.251220703125,8.056640625,0.030517578125,107.71883585164835,83.15051892551892,-22.902003205128207
405,0.3330078125,0.8955078125,0.305419921875,0.274658203125,-3.96728515625,0.8544921875,107.36155944749694,81.01388888888889,-23.590785256410253
406,0.368896484375,0.90576171875,0.263427734375,1.953125,6.591796875,0.762939453125,107.18292124542124,81.9041514041514,-22.385416666666664
407,0.374755859375,0.906005859375,0.27294921875,0.579833984375,0.579833984375,-0.30517578125,107.54019764957263,82.97246642246641,-23.41858974358974
408,0.340087890625,0.9052734375,0.295654296875,-0.213623046875,1.068115234375,0.396728515625,107.71883585164835,81.72609890109891,-22.557612179487176
409,0.3544921875,0.90869140625,0.288330078125,1.28173828125,3.631591796875,0.091552734375,107.36155944749694,81.72609890109891,-23.590785256410253
410,0.358642578125,0.900390625,0.28662109375,-0.48828125,1.312255859375,-0.762939453125,106.11109203296702,82.61636141636141,-23.41858974358974
411,0.34814453125,0.900146484375,0.291259765625,0.6103515625,0.67138671875,-0.823974609375,108.25475045787545,83.32857142857142,-22.385416666666664
412,0.36376953125,0.9150390625,0.278564453125,1.5869140625,5.889892578125,-0.213623046875,107.89747405372404,82.97246642246641,-23.07419871794872
413,0.35009765625,0.908447265625,0.282958984375,-0.579833984375,2.9296875,-0.885009765625,107.36155944749694,83.15051892551892,-23.590785256410253
414,0.353759765625,0.91162109375,0.284912109375,-0.42724609375,0.030517578125,-0.579833984375,107.36155944749694,82.79441391941393,-23.590785256410253
415,0.337890625,0.901123046875,0.28515625,0.030517578125,4.45556640625,-1.28173828125,106.82564484126983,82.61636141636141,-22.729807692307695
416,0.3544921875,0.90966796875,0.292724609375,-0.30517578125,-1.190185546875,-1.708984375,106.64700663919415,83.15051892551892,-22.902003205128207
417,0.336181640625,0.91455078125,0.306640625,0.762939453125,1.617431640625,-0.18310546875,107.00428304334554,81.36999389499388,-22.902003205128207
418,0.335205078125,0.918701171875,0.299072265625,0.06103515625,1.617431640625,-0.152587890625,106.46836843711843,81.5480463980464,-24.107371794871796
419,0.36279296875,0.908935546875,0.275634765625,0.946044921875,4.0283203125,-0.030517578125,106.11109203296702,82.61636141636141,-23.07419871794872
420,0.353759765625,0.912353515625,0.28125,0.0,2.01416015625,-0.244140625,107.18292124542124,81.5480463980464,-22.729807692307695
421,0.351806640625,0.9033203125,0.28369140625,0.396728515625,3.082275390625,-0.06103515625,107.89747405372404,81.5480463980464,-24.107371794871796
422,0.354248046875,0.905029296875,0.278564453125,0.640869140625,3.021240234375,0.152587890625,106.46836843711843,81.9041514041514,-22.729807692307695
423,0.361328125,0.9091796875,0.2802734375,0.3662109375,3.387451171875,0.18310546875,107.36155944749694,82.79441391941393,-23.24639423076923
424,0.356689453125,0.908447265625,0.287109375,0.335693359375,1.678466796875,-0.518798828125,108.79066506410255,80.65778388278387,-22.557612179487176
425,0.3388671875,0.906982421875,0.30126953125,-0.152587890625,2.685546875,-0.06103515625,107.54019764957263,81.9041514041514,-22.04102564102564
426,0.357666015625,0.90869140625,0.282470703125,1.28173828125,3.631591796875,0.091552734375,107.00428304334554,81.36999389499388,-24.279567307692307
427,0.361083984375,0.921875,0.281982421875,0.3662109375,2.288818359375,-0.457763671875,106.46836843711843,82.97246642246641,-23.41858974358974
428,0.3544921875,0.9091796875,0.287841796875,0.091552734375,1.678466796875,-0.274658203125,106.28973023504274,83.15051892551892,-21.86883012820513
429,0.353759765625,0.908203125,0.30615234375,0.48828125,1.28173828125,-0.213623046875,108.43338865995115,82.0822039072039,-22.902003205128207
430,0.35205078125,0.90576171875,0.288330078125,0.457763671875,2.8076171875,-0.457763671875,107.71883585164835,82.43830891330892,-23.590785256410253
431,0.357177734375,0.9130859375,0.293212890625,0.6103515625,3.2958984375,-0.274658203125,106.82564484126983,81.5480463980464,-22.04102564102564
432,0.341064453125,0.909423828125,0.29736328125,0.244140625,1.434326171875,-0.457763671875,107.18292124542124,82.2602564102564,-23.762980769230765
433,0.34521484375,0.88330078125,0.2919921875,1.129150390625,1.800537109375,0.54931640625,107.00428304334554,82.0822039072039,-21.524439102564102
434,0.358154296875,0.919189453125,0.2822265625,0.18310546875,5.645751953125,-2.349853515625,106.64700663919415,82.43830891330892,-22.213221153846153
435,0.335693359375,0.913330078125,0.28857421875,0.091552734375,1.220703125,-0.335693359375,106.11109203296702,82.2602564102564,-22.729807692307695
436,0.366943359375,0.90380859375,0.284912109375,0.640869140625,-3.631591796875,-0.030517578125,106.28973023504274,82.79441391941393,-22.902003205128207
437,0.3564453125,0.916015625,0.27978515625,0.885009765625,4.241943359375,-0.18310546875,107.54019764957263,81.5480463980464,-22.385416666666664
438,0.343017578125,0.899658203125,0.302490234375,0.213623046875,-0.06103515625,-0.823974609375,106.46836843711843,82.2602564102564,-22.385416666666664
439,0.35546875,0.91162109375,0.276123046875,1.983642578125,7.4462890625,-0.274658203125,107.00428304334554,81.72609890109891,-22.557612179487176
440,0.3642578125,0.91796875,0.2822265625,-0.6103515625,-1.678466796875,-1.5869140625,107.71883585164835,81.72609890109891,-23.590785256410253
441,0.344970703125,0.914306640625,0.294677734375,0.274658203125,3.509521484375,-0.9765625,107.18292124542124,83.32857142857142,-22.729807692307695
442,0.350341796875,0.908935546875,0.278564453125,0.8544921875,2.86865234375,-0.54931640625,107.36155944749694,82.43830891330892,-23.590785256410253
443,0.344970703125,0.92138671875,0.279052734375,0.701904296875,2.9296875,-0.457763671875,107.54019764957263,82.2602564102564,-22.729807692307695
444,0.350341796875,0.909912109375,0.289794921875,-0.213623046875,3.2958984375,0.030517578125,106.82564484126983,81.5480463980464,-23.07419871794872
445,0.346923828125,0.9072265625,0.287109375,0.579833984375,2.25830078125,0.06103515625,107.18292124542124,81.5480463980464,-23.41858974358974
446,0.3505859375,0.91357421875,0.291015625,0.48828125,2.0751953125,-0.244140625,106.28973023504274,82.43830891330892,-22.902003205128207
447,0.34765625,0.911865234375,0.2919921875,-0.213623046875,2.38037109375,0.0,105.57517742673991,82.43830891330892,-23.935176282051284
448,0.355224609375,0.904052734375,0.2861328125,0.54931640625,2.349853515625,-0.06103515625,106.82564484126983,82.2602564102564,-22.729807692307695
449,0.35595703125,0.91455078125,0.288818359375,0.06103515625,1.434326171875,-0.3662109375,106.64700663919415,83.50662393162393,-22.902003205128207
450,0.34228515625,0.91015625,0.295166015625,0.244140625,2.655029296875,0.1220703125,107.36155944749694,82.79441391941393,-22.213221153846153
451,0.34814453125,0.91015625,0.287353515625,0.06103515625,2.532958984375,0.091552734375,107.18292124542124,81.5480463980464,-23.07419871794872
452,0.343505859375,0.914794921875,0.285400390625,0.30517578125,2.532958984375,-0.244140625,107.00428304334554,83.15051892551892,-23.935176282051284
453,0.341796875,0.919189453125,0.28515625,0.42724609375,3.5400390625,-0.244140625,106.82564484126983,81.9041514041514,-22.385416666666664
454,0.369140625,0.912841796875,0.283935546875,-0.946044921875,-0.396728515625,-0.762939453125,107.36155944749694,82.43830891330892,-24.62395833333333
455,0.337890625,0.901123046875,0.289306640625,0.640869140625,2.685546875,0.42724609375,106.46836843711843,82.2602564102564,-23.41858974358974
456,0.357177734375,0.908935546875,0.273681640625,-0.48828125,5.06591796875,-0.701904296875,108.25475045787545,82.2602564102564,-24.45176282051282
457,0.34228515625,0.91064453125,0.300048828125,-0.518798828125,-0.79345703125,-2.01416015625,108.61202686202687,83.32857142857142,-23.07419871794872
458,0.345947265625,0.910888671875,0.28369140625,0.9765625,4.82177734375,-0.8544921875,107.54019764957263,82.97246642246641,-22.04102564102564
459,0.332275390625,0.912109375,0.2841796875,0.30517578125,1.617431640625,0.0,106.46836843711843,81.5480463980464,-23.762980769230765
460,0.35107421875,0.913818359375,0.27490234375,0.732421875,5.889892578125,1.15966796875,107.71883585164835,83.50662393162393,-22.557612179487176
461,0.356201171875,0.908203125,0.2744140625,-0.335693359375,-2.25830078125,0.030517578125,106.11109203296702,82.61636141636141,-24.796153846153842
462,0.365966796875,0.908203125,0.279052734375,-0.091552734375,1.5869140625,0.213623046875,109.68385607448107,82.61636141636141,-23.762980769230765
463,0.335205078125,0.90869140625,0.29443359375,0.152587890625,1.190185546875,0.518798828125,107.00428304334554,81.72609890109891,-21.86883012820513
464,0.376220703125,0.9091796875,0.283447265625,0.06103515625,0.1220703125,-0.396728515625,107.00428304334554,82.0822039072039,-22.557612179487176
465,0.33349609375,0.9208984375,0.2958984375,-0.1220703125,2.655029296875,-0.579833984375,107.71883585164835,81.72609890109891,-23.590785256410253
466,0.35400390625,0.9130859375,0.284912109375,0.335693359375,5.0048828125,0.18310546875,107.89747405372404,81.5480463980464,-23.07419871794872
467,0.34716796875,0.9052734375,0.28857421875,-0.091552734375,-0.244140625,-0.701904296875,107.36155944749694,82.43830891330892,-23.590785256410253
468,0.341064453125,0.908203125,0.2900390625,0.701904296875,3.082275390625,-0.030517578125,107.54019764957263,81.9041514041514,-21.696634615384617
469,0.354736328125,0.916259765625,0.280517578125,0.823974609375,5.18798828125,0.18310546875,106.46836843711843,81.19194139194138,-22.729807692307695
470,0.346923828125,0.905517578125,0.27734375,0.0,1.190185546875,-0.06103515625,106.82564484126983,82.61636141636141,-23.07419871794872
471,0.3486328125,0.90625,0.274169921875,0.91552734375,4.33349609375,-0.18310546875,106.64700663919415,82.79441391941393,-23.590785256410253
472,0.356689453125,0.908203125,0.30126953125,0.8544921875,1.0986328125,-0.274658203125,107.36155944749694,80.65778388278387,-22.902003205128207
473,0.34912109375,0.91015625,0.287841796875,0.244140625,2.9296875,-0.335693359375,107.36155944749694,82.43830891330892,-23.935176282051284
474,0.34765625,0.918212890625,0.291015625,0.06103515625,1.52587890625,-0.1220703125,106.82564484126983,82.61636141636141,-22.729807692307695
475,0.343017578125,0.90869140625,0.290771484375,1.129150390625,3.5400390625,-0.42724609375,107.36155944749694,82.43830891330892,-23.590785256410253
476,0.344970703125,0.914306640625,0.2939453125,0.91552734375,3.204345703125,-0.42724609375,108.07611225579976,82.0822039072039,-22.213221153846153
477,0.370849609375,0.917236328125,0.28857421875,0.244140625,1.861572265625,-1.03759765625,107.18292124542124,82.2602564102564,-23.07419871794872
478,0.343017578125,0.91162109375,0.298583984375,-0.48828125,1.190185546875,-0.823974609375,107.71883585164835,83.50662393162393,-23.590785256410253
479,0.34765625,0.91650390625,0.286865234375,-0.244140625,4.5166015625,-0.30517578125,107.18292124542124,81.9041514041514,-24.107371794871796
480,0.345703125,0.902587890625,0.296630859375,-0.091552734375,3.204345703125,0.030517578125,107.00428304334554,81.36999389499388,-23.590785256410253
481,0.34326171875,0.918701171875,0.29248046875,0.274658203125,2.532958984375,-0.335693359375,106.82564484126983,81.5480463980464,-23.07419871794872
482,0.349609375,0.91015625,0.303466796875,-0.30517578125,0.91552734375,-0.30517578125,106.11109203296702,81.9041514041514,-22.729807692307695
483,0.337646484375,0.90869140625,0.30126953125,0.579833984375,2.960205078125,-0.396728515625,106.46836843711843,82.2602564102564,-24.107371794871796
484,0.345947265625,0.908935546875,0.294189453125,0.579833984375,2.44140625,-0.54931640625,108.43338865995115,81.36999389499388,-23.590785256410253
485,0.335693359375,0.907958984375,0.3076171875,0.732421875,0.030517578125,-0.3662109375,106.82564484126983,81.9041514041514,-23.762980769230765
486,0.355712890625,0.9091796875,0.291259765625,0.79345703125,0.823974609375,0.0,106.82564484126983,83.15051892551892,-22.902003205128207
487,0.35498046875,0.90185546875,0.2939453125,0.518798828125,0.244140625,0.030517578125,106.82564484126983,81.19194139194138,-22.385416666666664
488,0.327880859375,0.900390625,0.276123046875,2.13623046875,10.25390625,-2.838134765625,107.36155944749694,82.0822039072039,-24.279567307692307
489,0.39453125,0.9072265625,0.271484375,-0.701904296875,-3.509521484375,-1.007080078125,105.57517742673991,82.0822039072039,-23.590785256410253
490,0.320068359375,0.930908203125,0.301513671875,0.732421875,5.37109375,-1.129150390625,105.75381562881563,82.2602564102564,-22.729807692307695
491,0.3486328125,0.907958984375,0.3095703125,-1.15966796875,-4.119873046875,-1.03759765625,108.43338865995115,82.0822039072039,-22.902003205128207
492,0.330322265625,0.904052734375,0.279541015625,2.410888671875,9.70458984375,-1.068115234375,107.36155944749694,81.72609890109891,-23.590785256410253
493,0.348388671875,0.921875,0.28466796875,-0.244140625,-2.13623046875,-1.28173828125,106.82564484126983,81.9041514041514,-22.385416666666664
494,0.333984375,0.9169921875,0.296875,0.732421875,2.288818359375,-0.30517578125,107.18292124542124,82.97246642246641,-23.07419871794872
495,0.357421875,0.91552734375,0.292236328125,0.579833984375,1.739501953125,-0.213623046875,108.25475045787545,81.9041514041514,-22.385416666666664
496,0.34130859375,0.912841796875,0.297607421875,0.0,1.251220703125,-0.42724609375,106.64700663919415,82.43830891330892,-21.524439102564102
497,0.343017578125,0.911865234375,0.297607421875,0.152587890625,0.946044921875,0.732421875,108.25475045787545,82.97246642246641,-22.729807692307695
498,0.366455078125,0.927001953125,0.2783203125,0.091552734375,1.678466796875,-0.457763671875,108.25475045787545,82.61636141636141,-21.352243589743587
499,0.334716796875,0.8994140625,0.299072265625,0.3662109375,-0.030517578125,-0.457763671875,107.36155944749694,82.79441391941393,-23.935176282051284
500,0.370361328125,0.908203125,0.260009765625,0.54931640625,4.0283203125,-1.495361328125,107.00428304334554,82.43830891330892,-21.86883012820513
501,0.366455078125,0.919677734375,0.277099609375,-0.54931640625,0.518798828125,0.640869140625,107.71883585164835,83.15051892551892,-22.557612179487176
502,0.333740234375,0.914794921875,0.28564453125,0.946044921875,4.547119140625,0.457763671875,107.36155944749694,82.0822039072039,-22.213221153846153
503,0.3525390625,0.9033203125,0.31396484375,-0.640869140625,-1.8310546875,-0.244140625,107.18292124542124,81.9041514041514,-22.385416666666664
504,0.343505859375,0.90869140625,0.28173828125,1.8310546875,9.429931640625,-0.274658203125,108.61202686202687,82.97246642246641,-23.41858974358974
505,0.368896484375,0.9072265625,0.299560546875,-0.48828125,-2.38037109375,-0.91552734375,107.36155944749694,83.50662393162393,-23.24639423076923
506,0.33837890625,0.90234375,0.2900390625,0.946044921875,4.913330078125,-0.244140625,107.54019764957263,82.97246642246641,-22.385416666666664
507,0.362548828125,0.87353515625,0.28125,0.1220703125,2.74658203125,-0.762939453125,107.89747405372404,81.19194139194138,-21.696634615384617
508,0.3203125,0.906982421875,0.28759765625,1.739501953125,8.270263671875,-2.655029296875,108.61202686202687,81.19194139194138,-23.07419871794872
509,0.357421875,0.9228515625,0.280517578125,1.15966796875,4.119873046875,-1.800537109375,106.82564484126983,82.2602564102564,-22.385416666666664
510,0.34228515625,0.909423828125,0.295654296875,0.42724609375,-2.25830078125,-0.885009765625,108.25475045787545,82.97246642246641,-23.41858974358974
511,0.34228515625,0.91259765625,0.282958984375,0.823974609375,0.30517578125,-0.457763671875,108.25475045787545,83.68467643467642,-22.729807692307695
512,0.35888671875,0.9140625,0.273681640625,0.67138671875,-0.30517578125,-0.396728515625,107.36155944749694,80.30167887667886,-21.86883012820513
513,0.35107421875,0.916259765625,0.282470703125,1.03759765625,1.89208984375,-0.518798828125,108.25475045787545,81.9041514041514,-21.352243589743587
514,0.3583984375,0.919189453125,0.28076171875,-0.213623046875,0.518798828125,-0.335693359375,107.36155944749694,82.43830891330892,-23.24639423076923
515,0.337890625,0.920654296875,0.293701171875,-0.42724609375,3.021240234375,0.54931640625,108.07611225579976,83.50662393162393,-23.590785256410253
516,0.364013671875,0.914306640625,0.28173828125,0.3662109375,2.8076171875,0.18310546875,107.00428304334554,82.0822039072039,-24.279567307692307
517,0.357666015625,0.922119140625,0.275390625,1.190185546875,5.92041015625,0.244140625,107.71883585164835,81.72609890109891,-22.213221153846153
518,0.34521484375,0.902587890625,0.29248046875,0.030517578125,0.823974609375,0.18310546875,107.54019764957263,81.9041514041514,-22.385416666666664
519,0.364990234375,0.917236328125,0.26318359375,0.244140625,4.302978515625,0.213623046875,107.36155944749694,83.15051892551892,-22.902003205128207
520,0.358154296875,0.90673828125,0.290283203125,-0.18310546875,-0.030517578125,-0.885009765625,106.64700663919415,82.79441391941393,-23.24639423076923
521,0.33447265625,0.906005859375,0.3046875,0.152587890625,2.8076171875,1.007080078125,106.82564484126983,81.9041514041514,-21.696634615384617
522,0.35546875,0.910400390625,0.267578125,1.708984375,7.904052734375,0.762939453125,105.75381562881563,80.83583638583639,-22.385416666666664
523,0.36767578125,0.909423828125,0.288330078125,0.152587890625,0.0,-0.762939453125,107.71883585164835,82.43830891330892,-22.213221153846153
524,0.35009765625,0.918701171875,0.287841796875,-0.48828125,-1.678466796875,-0.335693359375,107.00428304334554,81.72609890109891,-22.902003205128207
525,0.36474609375,0.9169921875,0.28515625,-0.701904296875,-0.885009765625,0.30517578125,107.00428304334554,82.0822039072039,-22.902003205128207
526,0.35595703125,0.916015625,0.298828125,0.152587890625,-0.152587890625,-0.91552734375,108.07611225579976,82.43830891330892,-23.24639423076923
527,0.345947265625,0.915283203125,0.29052734375,0.9765625,4.119873046875,-1.3427734375,107.00428304334554,82.0822039072039,-22.213221153846153
528,0.364990234375,0.915283203125,0.272216796875,0.8544921875,3.5400390625,-0.640869140625,107.54019764957263,81.9041514041514,-23.07419871794872
529,0.350830078125,0.912353515625,0.2822265625,0.701904296875,1.953125,-0.54931640625,105.93245383089133,82.0822039072039,-22.213221153846153
530,0.3544921875,0.90869140625,0.281494140625,0.762939453125,2.0751953125,0.67138671875,108.25475045787545,81.5480463980464,-22.729807692307695
531,0.336669921875,0.91455078125,0.2841796875,0.396728515625,3.7841796875,-0.42724609375,107.71883585164835,82.79441391941393,-22.557612179487176
532,0.34521484375,0.903076171875,0.287353515625,1.28173828125,-1.007080078125,-0.152587890625,107.54019764957263,81.19194139194138,-23.41858974358974
533,0.3623046875,0.904541015625,0.268798828125,0.213623046875,2.410888671875,0.701904296875,106.46836843711843,82.2602564102564,-22.04102564102564
534,0.343505859375,0.9033203125,0.274169921875,-0.67138671875,-2.105712890625,0.518798828125,107.18292124542124,82.2602564102564,-22.729807692307695
535,0.386962890625,0.90966796875,0.276611328125,-1.068115234375,-7.781982421875,1.5869140625,106.82564484126983,82.61636141636141,-22.04102564102564
536,0.388671875,0.914794921875,0.28173828125,1.5869140625,0.244140625,-0.48828125,106.11109203296702,81.5480463980464,-20.66346153846154
537,0.372802734375,0.908203125,0.259521484375,0.79345703125,6.16455078125,-0.8544921875,106.82564484126983,81.5480463980464,-21.696634615384617
538,0.37255859375,0.91162109375,0.275146484375,-0.54931640625,0.42724609375,-2.105712890625,106.82564484126983,81.9041514041514,-21.352243589743587
539,0.3681640625,0.90869140625,0.27734375,0.518798828125,2.288818359375,-1.739501953125,107.18292124542124,80.83583638583639,-21.696634615384617
540,0.35888671875,0.914306640625,0.271240234375,-0.030517578125,0.518798828125,-1.190185546875,108.07611225579976,82.0822039072039,-21.86883012820513
541,0.353515625,0.903564453125,0.2744140625,0.823974609375,3.0517578125,0.274658203125,107.18292124542124,81.5480463980464,-20.66346153846154
542,0.370361328125,0.910400390625,0.26513671875,1.40380859375,5.767822265625,0.335693359375,107.54019764957263,81.5480463980464,-21.352243589743587
543,0.343994140625,0.9091796875,0.2861328125,-0.885009765625,5.2490234375,-0.42724609375,108.07611225579976,83.86272893772893,-20.835657051282052
544,0.3779296875,0.90625,0.28564453125,1.129150390625,0.0,-0.213623046875,108.07611225579976,83.86272893772893,-20.835657051282052
545,0.34521484375,0.910888671875,0.2578125,1.495361328125,10.223388671875,0.396728515625,107.36155944749694,80.65778388278387,-23.24639423076923
546,0.38232421875,0.908935546875,0.26318359375,-0.18310546875,-1.03759765625,-0.579833984375,108.61202686202687,82.61636141636141,-21.352243589743587
547,0.3701171875,0.917724609375,0.290283203125,0.335693359375,-0.30517578125,-0.579833984375,107.54019764957263,82.2602564102564,-21.696634615384617
548,0.351318359375,0.909912109375,0.274169921875,1.434326171875,7.2021484375,-0.030517578125,107.18292124542124,81.5480463980464,-22.04102564102564
549,0.363037109375,0.907470703125,0.2744140625,0.6103515625,2.13623046875,-0.579833984375,107.00428304334554,81.72609890109891,-21.86883012820513
550,0.3486328125,0.91015625,0.275390625,0.3662109375,4.852294921875,-0.244140625,107.54019764957263,82.97246642246641,-22.385416666666664
551,0.367919921875,0.912841796875,0.271728515625,0.18310546875,3.570556640625,0.0,107.18292124542124,82.2602564102564,-21.007852564102564
552,0.3603515625,0.916259765625,0.269775390625,0.91552734375,4.425048828125,-0.3662109375,106.82564484126983,82.97246642246641,-22.04102564102564
553,0.353271484375,0.917724609375,0.284423828125,0.457763671875,1.861572265625,-0.732421875,106.46836843711843,81.5480463980464,-21.696634615384617
554,0.369140625,0.914794921875,0.275634765625,0.762939453125,2.899169921875,-0.091552734375,109.14794146825396,82.0822039072039,-22.213221153846153
555,0.36376953125,0.915771484375,0.273193359375,-0.30517578125,1.312255859375,-0.18310546875,106.11109203296702,82.61636141636141,-23.07419871794872
556,0.346435546875,0.898681640625,0.287109375,-0.3662109375,0.885009765625,-0.030517578125,108.43338865995115,81.72609890109891,-23.24639423076923
557,0.365966796875,0.917236328125,0.27880859375,-0.335693359375,0.30517578125,1.922607421875,107.36155944749694,82.43830891330892,-23.935176282051284
558,0.36865234375,0.908447265625,0.279541015625,0.30517578125,1.373291015625,0.54931640625,106.82564484126983,80.83583638583639,-22.729807692307695
559,0.38330078125,0.91162109375,0.268798828125,0.701904296875,1.15966796875,-0.885009765625,108.43338865995115,81.36999389499388,-22.557612179487176
560,0.366455078125,0.9140625,0.2685546875,0.18310546875,2.777099609375,-1.28173828125,107.36155944749694,80.65778388278387,-22.902003205128207
561,0.360107421875,0.900146484375,0.27734375,0.457763671875,0.30517578125,-1.495361328125,107.18292124542124,82.61636141636141,-22.385416666666664
562,0.36376953125,0.910888671875,0.27294921875,1.007080078125,2.899169921875,-1.190185546875,107.18292124542124,81.5480463980464,-22.729807692307695
563,0.358642578125,0.91259765625,0.28466796875,0.54931640625,1.068115234375,-1.28173828125,106.46836843711843,81.19194139194138,-21.007852564102564
564,0.35595703125,0.903564453125,0.2822265625,1.007080078125,4.45556640625,-0.823974609375,107.54019764957263,81.5480463980464,-22.04102564102564
565,0.35302734375,0.902587890625,0.271240234375,0.518798828125,2.74658203125,-0.213623046875,107.71883585164835,81.36999389499388,-21.86883012820513
566,0.37353515625,0.890869140625,0.2470703125,1.15966796875,6.77490234375,0.274658203125,106.46836843711843,82.2602564102564,-22.04102564102564
567,0.363037109375,0.90869140625,0.269775390625,-0.30517578125,-0.3662109375,0.6103515625,106.11109203296702,81.9041514041514,-21.352243589743587
568,0.3642578125,0.90625,0.291015625,-0.030517578125,3.631591796875,0.1220703125,106.82564484126983,82.2602564102564,-21.007852564102564
569,0.359375,0.910888671875,0.293212890625,0.579833984375,1.800537109375,-0.30517578125,106.82564484126983,82.2602564102564,-21.007852564102564
570,0.349609375,0.908203125,0.291015625,0.030517578125,3.23486328125,-0.152587890625,107.36155944749694,83.15051892551892,-22.213221153846153
571,0.359375,0.9072265625,0.2802734375,0.823974609375,5.523681640625,0.091552734375,106.46836843711843,82.61636141636141,-21.696634615384617
572,0.361572265625,0.91259765625,0.279296875,0.274658203125,1.617431640625,0.06103515625,107.36155944749694,82.0822039072039,-21.524439102564102
573,0.361328125,0.910888671875,0.280029296875,0.48828125,2.655029296875,-0.1220703125,107.36155944749694,82.79441391941393,-23.590785256410253
574,0.357421875,0.905517578125,0.28515625,0.274658203125,1.03759765625,-0.030517578125,108.79066506410255,81.01388888888889,-21.86883012820513
575,0.36962890625,0.907958984375,0.277587890625,0.54931640625,1.922607421875,-0.42724609375,105.93245383089133,81.36999389499388,-22.213221153846153
576,0.369140625,0.908447265625,0.28125,0.701904296875,3.23486328125,0.152587890625,107.71883585164835,82.43830891330892,-22.902003205128207
577,0.365966796875,0.910400390625,0.27978515625,-0.396728515625,0.762939453125,-0.457763671875,107.36155944749694,82.79441391941393,-21.180048076923075
578,0.3662109375,0.908203125,0.2705078125,0.54931640625,2.197265625,-0.396728515625,106.82564484126983,81.9041514041514,-21.696634615384617
579,0.365234375,0.90576171875,0.275390625,0.30517578125,2.197265625,-0.42724609375,106.46836843711843,82.61636141636141,-22.385416666666664
580,0.36474609375,0.90869140625,0.291259765625,0.48828125,0.640869140625,-0.213623046875,105.2179010225885,82.43830891330892,-21.180048076923075
581,0.36572265625,0.91015625,0.279052734375,0.79345703125,4.33349609375,-0.3662109375,106.82564484126983,81.9041514041514,-22.729807692307695
582,0.3544921875,0.90966796875,0.27587890625,0.396728515625,1.373291015625,-0.91552734375,107.18292124542124,81.19194139194138,-22.04102564102564
583,0.369140625,0.907958984375,0.26904296875,0.244140625,1.8310546875,-0.9765625,107.18292124542124,82.97246642246641,-22.385416666666664
584,0.35791015625,0.905029296875,0.271484375,0.732421875,2.74658203125,-0.9765625,107.54019764957263,81.9041514041514,-21.696634615384617
585,0.36328125,0.911865234375,0.27197265625,0.91552734375,2.25830078125,-0.67138671875,106.64700663919415,81.01388888888889,-20.835657051282052
586,0.36181640625,0.908935546875,0.265869140625,1.0986328125,1.983642578125,-0.48828125,107.54019764957263,83.32857142857142,-22.385416666666664
587,0.357666015625,0.90869140625,0.283203125,0.946044921875,4.241943359375,-0.457763671875,107.71883585164835,82.0822039072039,-20.835657051282052
588,0.359619140625,0.914794921875,0.2724609375,0.48828125,3.143310546875,-0.518798828125,108.07611225579976,81.72609890109891,-22.557612179487176
589,0.366943359375,0.909423828125,0.270263671875,0.579833984375,2.166748046875,-0.335693359375,107.18292124542124,83.32857142857142,-21.352243589743587
590,0.35791015625,0.9150390625,0.287353515625,0.518798828125,3.35693359375,-0.518798828125,106.64700663919415,83.15051892551892,-21.180048076923075
591,0.366943359375,0.909912109375,0.266357421875,0.18310546875,2.86865234375,-0.18310546875,106.28973023504274,82.43830891330892,-22.213221153846153
592,0.3623046875,0.908935546875,0.27880859375,-0.274658203125,1.190185546875,-0.030517578125,107.00428304334554,81.36999389499388,-21.524439102564102
593,0.36279296875,0.90771484375,0.2783203125,0.30517578125,1.800537109375,-0.518798828125,108.96930326617827,82.61636141636141,-21.696634615384617
594,0.364990234375,0.912109375,0.265380859375,0.640869140625,2.5634765625,-0.18310546875,107.71883585164835,82.79441391941393,-22.213221153846153
595,0.36083984375,0.910400390625,0.2822265625,-0.1220703125,2.38037109375,0.1220703125,106.82564484126983,81.9041514041514,-22.04102564102564
596,0.353515625,0.908447265625,0.277099609375,0.457763671875,2.01416015625,0.06103515625,106.82564484126983,82.2602564102564,-22.729807692307695
597,0.36181640625,0.9072265625,0.276123046875,0.762939453125,3.11279296875,-0.18310546875,107.18292124542124,81.5480463980464,-22.385416666666664
598,0.369140625,0.913330078125,0.275634765625,0.457763671875,2.74658203125,-0.30517578125,107.36155944749694,82.43830891330892,-21.524439102564102
599,0.3662109375,0.908203125,0.27294921875,0.30517578125,3.60107421875,0.06103515625,106.28973023504274,82.79441391941393,-20.835657051282052
600,0.358154296875,0.907470703125,0.276123046875,-0.244140625,0.30517578125,-0.48828125,107.36155944749694,81.01388888888889,-22.729807692307695
601,0.352294921875,0.9091796875,0.282958984375,0.0,2.8076171875,0.1220703125,107.36155944749694,82.79441391941393,-20.835657051282052
602,0.367919921875,0.90185546875,0.281005859375,0.579833984375,2.777099609375,-0.3662109375,106.28973023504274,83.15051892551892,-22.557612179487176
603,0.354736328125,0.91064453125,0.274658203125,0.335693359375,1.922607421875,-0.18310546875,106.82564484126983,82.2602564102564,-21.352243589743587
604,0.365234375,0.915283203125,0.271484375,0.762939453125,3.47900390625,-0.67138671875,107.00428304334554,82.43830891330892,-21.86883012820513
605,0.35888671875,0.90869140625,0.268798828125,0.54931640625,2.197265625,-0.3662109375,107.18292124542124,81.9041514041514,-21.007852564102564
606,0.3671875,0.909423828125,0.271240234375,1.007080078125,1.861572265625,-0.48828125,107.36155944749694,81.01388888888889,-20.835657051282052
607,0.35693359375,0.914794921875,0.279541015625,0.6103515625,2.44140625,-0.6103515625,105.93245383089133,82.0822039072039,-21.524439102564102
608,0.365966796875,0.9111328125,0.27880859375,0.48828125,1.739501953125,-0.79345703125,107.54019764957263,83.68467643467642,-21.352243589743587
609,0.35888671875,0.9111328125,0.281494140625,0.244140625,1.068115234375,-0.8544921875,107.00428304334554,83.15051892551892,-20.835657051282052
610,0.35986328125,0.905517578125,0.27783203125,1.007080078125,1.28173828125,-0.3662109375,107.18292124542124,82.61636141636141,-21.696634615384617
611,0.36328125,0.91259765625,0.271728515625,0.701904296875,1.556396484375,-0.091552734375,106.28973023504274,83.50662393162393,-21.86883012820513
612,0.356689453125,0.916748046875,0.275146484375,0.396728515625,2.99072265625,-0.030517578125,107.71883585164835,81.72609890109891,-22.213221153846153
613,0.36083984375,0.9072265625,0.27392578125,0.48828125,4.21142578125,-0.579833984375,106.64700663919415,82.43830891330892,-21.524439102564102
614,0.362548828125,0.911865234375,0.2763671875,0.54931640625,2.9296875,-0.244140625,107.54019764957263,82.97246642246641,-21.007852564102564
615,0.3583984375,0.91015625,0.2822265625,0.18310546875,3.7841796875,0.091552734375,107.71883585164835,83.50662393162393,-20.835657051282052
616,0.361572265625,0.915283203125,0.27685546875,0.30517578125,2.105712890625,-0.18310546875,106.64700663919415,83.50662393162393,-21.524439102564102
617,0.35693359375,0.90966796875,0.283935546875,0.213623046875,2.593994140625,-0.152587890625,106.64700663919415,82.79441391941393,-22.213221153846153
618,0.355712890625,0.908935546875,0.297119140625,0.30517578125,2.3193359375,-0.396728515625,107.71883585164835,82.79441391941393,-22.902003205128207
619,0.355712890625,0.9091796875,0.278564453125,0.457763671875,3.143310546875,0.06103515625,107.71883585164835,82.79441391941393,-22.902003205128207
620,0.358642578125,0.908447265625,0.277099609375,0.0,1.678466796875,-0.152587890625,105.75381562881563,81.9041514041514,-21.696634615384617
621,0.35791015625,0.910400390625,0.27392578125,0.67138671875,2.74658203125,-0.396728515625,106.28973023504274,81.36999389499388,-22.902003205128207
622,0.365478515625,0.903564453125,0.272705078125,0.79345703125,0.9765625,-0.823974609375,107.71883585164835,82.0822039072039,-22.557612179487176
623,0.356201171875,0.911865234375,0.28369140625,0.335693359375,1.373291015625,-0.30517578125,107.36155944749694,82.0822039072039,-22.557612179487176
624,0.36279296875,0.914794921875,0.282470703125,0.06103515625,2.655029296875,-0.06103515625,107.71883585164835,82.0822039072039,-22.213221153846153
625,0.35546875,0.905029296875,0.27392578125,0.335693359375,2.655029296875,-0.30517578125,106.46836843711843,82.2602564102564,-21.696634615384617
626,0.362548828125,0.904052734375,0.283203125,0.91552734375,1.983642578125,-0.6103515625,106.28973023504274,82.79441391941393,-21.524439102564102
627,0.36279296875,0.91552734375,0.27685546875,0.213623046875,2.166748046875,-0.91552734375,107.89747405372404,81.19194139194138,-21.696634615384617
628,0.364013671875,0.912353515625,0.27099609375,0.701904296875,1.28173828125,-0.54931640625,106.64700663919415,82.0822039072039,-23.24639423076923
629,0.361572265625,0.90966796875,0.28466796875,0.396728515625,1.068115234375,-0.244140625,105.93245383089133,81.72609890109891,-21.86883012820513
630,0.358154296875,0.90966796875,0.271240234375,0.274658203125,0.335693359375,-0.457763671875,106.82564484126983,82.2602564102564,-22.385416666666664
631,0.35888671875,0.912841796875,0.272705078125,0.91552734375,1.617431640625,-0.244140625,106.64700663919415,80.65778388278387,-19.802483974358974
632,0.360107421875,0.91552734375,0.27490234375,0.457763671875,1.922607421875,-0.42724609375,107.36155944749694,80.65778388278387,-21.86883012820513
633,0.355712890625,0.9140625,0.27294921875,0.91552734375,1.8310546875,-0.1220703125,107.54019764957263,82.97246642246641,-21.696634615384617
634,0.362548828125,0.9091796875,0.2744140625,0.518798828125,3.7841796875,-0.06103515625,108.43338865995115,81.01388888888889,-22.213221153846153
635,0.35693359375,0.913330078125,0.280517578125,0.030517578125,4.2724609375,-0.06103515625,105.2179010225885,83.50662393162393,-22.557612179487176
636,0.368896484375,0.917236328125,0.277099609375,0.518798828125,3.204345703125,-0.6103515625,107.54019764957263,80.83583638583639,-23.07419871794872
637,0.3505859375,0.9150390625,0.281494140625,-0.152587890625,3.173828125,-0.152587890625,106.82564484126983,82.2602564102564,-22.385416666666664
638,0.365478515625,0.911865234375,0.265380859375,0.67138671875,3.2958984375,-0.06103515625,108.07611225579976,82.43830891330892,-22.557612179487176
639,0.354736328125,0.908447265625,0.277099609375,0.152587890625,2.0751953125,-0.30517578125,108.07611225579976,82.43830891330892,-22.557612179487176
640,0.35595703125,0.912841796875,0.275390625,0.518798828125,1.953125,-0.274658203125,106.11109203296702,81.9041514041514,-22.729807692307695
641,0.360107421875,0.90771484375,0.27978515625,0.274658203125,4.364013671875,-0.030517578125,107.18292124542124,82.61636141636141,-23.07419871794872
642,0.363525390625,0.9072265625,0.268798828125,0.54931640625,2.166748046875,-0.518798828125,107.89747405372404,83.32857142857142,-22.729807692307695
643,0.35791015625,0.91357421875,0.2861328125,0.335693359375,1.373291015625,-0.3662109375,107.89747405372404,83.32857142857142,-22.729807692307695
644,0.36669921875,0.906982421875,0.278564453125,0.579833984375,2.838134765625,0.030517578125,107.00428304334554,82.79441391941393,-22.213221153846153
645,0.359375,0.9033203125,0.270751953125,0.54931640625,0.946044921875,-0.396728515625,107.18292124542124,81.9041514041514,-22.385416666666664
646,0.35693359375,0.910400390625,0.27978515625,0.762939453125,1.28173828125,0.030517578125,107.89747405372404,81.9041514041514,-22.04102564102564
647,0.363525390625,0.912353515625,0.277099609375,0.732421875,2.74658203125,-0.030517578125,107.89747405372404,81.9041514041514,-22.04102564102564
648,0.368896484375,0.90966796875,0.28662109375,0.457763671875,2.410888671875,-0.54931640625,107.00428304334554,82.0822039072039,-22.213221153846153
649,0.363525390625,0.908203125,0.267578125,0.48828125,1.89208984375,-0.091552734375,106.46836843711843,82.61636141636141,-21.352243589743587
650,0.3623046875,0.911376953125,0.271240234375,0.579833984375,1.708984375,-0.518798828125,108.25475045787545,81.19194139194138,-22.04102564102564
651,0.360595703125,0.91064453125,0.269775390625,0.213623046875,1.556396484375,-0.640869140625,106.46836843711843,82.2602564102564,-22.04102564102564
652,0.35791015625,0.916259765625,0.278564453125,0.54931640625,1.495361328125,-0.335693359375,108.07611225579976,82.43830891330892,-22.213221153846153
653,0.357666015625,0.910400390625,0.27490234375,0.244140625,2.86865234375,-0.30517578125,106.64700663919415,82.43830891330892,-22.213221153846153
654,0.358154296875,0.9091796875,0.267333984375,0.396728515625,0.42724609375,-0.42724609375,108.07611225579976,82.43830891330892,-22.557612179487176
655,0.35888671875,0.918212890625,0.269775390625,0.6103515625,3.021240234375,-0.42724609375,107.71883585164835,82.0822039072039,-21.524439102564102
656,0.357177734375,0.914306640625,0.277587890625,0.274658203125,2.777099609375,-0.244140625,107.54019764957263,82.2602564102564,-21.007852564102564
657,0.364501953125,0.909912109375,0.27392578125,0.030517578125,2.166748046875,-0.457763671875,106.46836843711843,81.9041514041514,-21.696634615384617
658,0.361083984375,0.90869140625,0.2763671875,0.0,1.52587890625,-0.1220703125,108.43338865995115,81.36999389499388,-22.213221153846153
659,0.351806640625,0.912109375,0.282958984375,0.152587890625,1.52587890625,-0.518798828125,107.18292124542124,83.32857142857142,-23.07419871794872
660,0.349365234375,0.915283203125,0.28369140625,0.518798828125,3.72314453125,0.18310546875,107.54019764957263,81.9041514041514,-23.41858974358974
661,0.358154296875,0.9111328125,0.26611328125,0.396728515625,3.448486328125,0.091552734375,108.25475045787545,81.9041514041514,-22.385416666666664
662,0.35791015625,0.910888671875,0.267822265625,0.244140625,2.685546875,-0.30517578125,108.25475045787545,81.9041514041514,-22.385416666666664
663,0.357666015625,0.908203125,0.28466796875,0.0,2.62451171875,-0.152587890625,107.36155944749694,81.36999389499388,-21.86883012820513
664,0.353759765625,0.91015625,0.26904296875,0.42724609375,2.838134765625,0.1220703125,107.36155944749694,81.36999389499388,-21.86883012820513
665,0.367919921875,0.906494140625,0.271728515625,0.8544921875,2.86865234375,-0.1220703125,108.07611225579976,83.86272893772893,-21.180048076923075
666,0.36572265625,0.90966796875,0.2646484375,0.274658203125,1.708984375,-0.30517578125,108.07611225579976,83.86272893772893,-21.180048076923075
667,0.357666015625,0.91064453125,0.279541015625,0.30517578125,2.410888671875,-0.244140625,107.00428304334554,84.57493894993894,-21.524439102564102
668,0.356201171875,0.91064453125,0.283203125,0.640869140625,2.9296875,-0.244140625,105.57517742673991,80.65778388278387,-20.835657051282052
669,0.36376953125,0.9091796875,0.28515625,0.762939453125,1.861572265625,-0.6103515625,107.00428304334554,82.43830891330892,-21.86883012820513
670,0.35693359375,0.911376953125,0.294677734375,0.091552734375,1.251220703125,-0.30517578125,107.00428304334554,82.43830891330892,-21.86883012820513
671,0.36572265625,0.910400390625,0.28125,0.579833984375,1.312255859375,-0.152587890625,105.2179010225885,82.43830891330892,-21.86883012820513
672,0.359619140625,0.9130859375,0.27685546875,-0.091552734375,1.434326171875,-0.640869140625,107.89747405372404,82.2602564102564,-22.729807692307695
673,0.36181640625,0.912841796875,0.276123046875,0.579833984375,1.129150390625,-0.30517578125,106.28973023504274,81.36999389499388,-22.902003205128207
674,0.36328125,0.91357421875,0.264892578125,0.244140625,1.739501953125,-0.732421875,107.54019764957263,82.97246642246641,-22.729807692307695
675,0.35888671875,0.911376953125,0.27880859375,0.335693359375,1.64794921875,-0.6103515625,106.11109203296702,82.97246642246641,-23.41858974358974
676,0.364013671875,0.91552734375,0.265380859375,0.640869140625,1.77001953125,-0.06103515625,106.64700663919415,82.43830891330892,-21.180048076923075
677,0.37109375,0.912841796875,0.257568359375,0.335693359375,2.38037109375,-0.335693359375,107.54019764957263,82.2602564102564,-21.352243589743587
678,0.35791015625,0.907958984375,0.27197265625,0.06103515625,1.434326171875,-0.18310546875,107.18292124542124,84.04078144078144,-21.352243589743587
679,0.357421875,0.9091796875,0.28125,0.457763671875,1.800537109375,-0.30517578125,107.00428304334554,81.36999389499388,-21.180048076923075
680,0.365234375,0.912841796875,0.2705078125,0.3662109375,3.631591796875,-0.3662109375,107.36155944749694,81.72609890109891,-21.180048076923075
681,0.358154296875,0.909912109375,0.27685546875,0.18310546875,2.197265625,-0.244140625,108.25475045787545,84.04078144078144,-22.04102564102564
682,0.357421875,0.911376953125,0.2841796875,0.732421875,2.62451171875,-0.06103515625,108.25475045787545,81.9041514041514,-20.319070512820513
683,0.355224609375,0.91357421875,0.27783203125,0.42724609375,3.60107421875,-0.152587890625,107.71883585164835,81.72609890109891,-22.557612179487176
684,0.36328125,0.9140625,0.27880859375,0.244140625,3.173828125,-0.579833984375,106.82564484126983,83.32857142857142,-21.352243589743587
685,0.354248046875,0.912841796875,0.281494140625,0.579833984375,3.41796875,-0.091552734375,107.18292124542124,81.9041514041514,-22.385416666666664
686,0.36279296875,0.908935546875,0.275146484375,0.579833984375,2.25830078125,-0.152587890625,106.11109203296702,82.61636141636141,-23.07419871794872
687,0.353271484375,0.911376953125,0.28759765625,0.152587890625,1.52587890625,-0.06103515625,106.11109203296702,82.61636141636141,-23.07419871794872
688,0.356689453125,0.91357421875,0.280029296875,0.823974609375,2.593994140625,-0.152587890625,107.89747405372404,82.97246642246641,-22.729807692307695
689,0.35693359375,0.911376953125,0.2734375,0.518798828125,3.875732421875,-0.42724609375,106.82564484126983,84.04078144078144,-22.729807692307695
690,0.36181640625,0.907470703125,0.279052734375,0.152587890625,2.0751953125,-0.30517578125,106.64700663919415,81.01388888888889,-22.557612179487176
691,0.359619140625,0.913818359375,0.27880859375,0.06103515625,1.678466796875,-0.030517578125,106.64700663919415,81.36999389499388,-23.590785256410253
692,0.35888671875,0.90478515625,0.27392578125,0.518798828125,2.471923828125,-0.30517578125,106.82564484126983,81.9041514041514,-21.696634615384617
693,0.3623046875,0.913818359375,0.27783203125,0.518798828125,2.105712890625,-0.18310546875,106.82564484126983,82.2602564102564,-22.04102564102564
694,0.36083984375,0.91259765625,0.278564453125,0.06103515625,1.8310546875,-0.54931640625,107.18292124542124,82.2602564102564,-21.696634615384617
695,0.361328125,0.90869140625,0.270263671875,0.274658203125,1.251220703125,-0.457763671875,107.18292124542124,81.5480463980464,-22.04102564102564
696,0.355712890625,0.906982421875,0.28564453125,0.0,1.007080078125,-0.732421875,106.28973023504274,83.50662393162393,-21.86883012820513
697,0.35888671875,0.91357421875,0.27099609375,0.30517578125,0.79345703125,-0.48828125,107.18292124542124,81.9041514041514,-21.352243589743587
698,0.359375,0.915283203125,0.283935546875,0.457763671875,2.3193359375,-0.42724609375,109.32657967032966,82.97246642246641,-23.07419871794872
699,0.357666015625,0.909912109375,0.275390625,0.885009765625,1.617431640625,-0.579833984375,107.89747405372404,82.2602564102564,-22.385416666666664
700,0.359619140625,0.9091796875,0.273193359375,0.701904296875,1.46484375,-0.213623046875,108.43338865995115,82.43830891330892,-22.557612179487176
701,0.356689453125,0.9111328125,0.273681640625,0.640869140625,2.44140625,0.274658203125,106.82564484126983,82.2602564102564,-20.319070512820513
702,0.35205078125,0.908203125,0.285400390625,0.42724609375,4.2724609375,-0.244140625,107.71883585164835,81.36999389499388,-21.524439102564102
703,0.363525390625,0.90625,0.269287109375,0.6103515625,3.2958984375,-0.244140625,106.82564484126983,82.2602564102564,-22.385416666666664
704,0.365234375,0.910888671875,0.275146484375,0.091552734375,2.899169921875,-0.30517578125,108.43338865995115,83.15051892551892,-21.524439102564102
705,0.360595703125,0.912109375,0.27587890625,0.152587890625,2.044677734375,-0.030517578125,107.00428304334554,82.43830891330892,-21.180048076923075
706,0.3623046875,0.908447265625,0.271240234375,0.213623046875,1.64794921875,-0.152587890625,107.36155944749694,82.0822039072039,-22.902003205128207
707,0.35400390625,0.912841796875,0.285888671875,0.152587890625,2.3193359375,-0.091552734375,108.79066506410255,82.0822039072039,-21.86883012820513
708,0.360595703125,0.910888671875,0.274169921875,0.091552734375,2.50244140625,-0.091552734375,107.18292124542124,83.32857142857142,-22.04102564102564
709,0.35595703125,0.906005859375,0.277099609375,-0.030517578125,2.166748046875,-0.274658203125,107.00428304334554,81.01388888888889,-22.557612179487176
710,0.361328125,0.912353515625,0.27685546875,0.732421875,3.173828125,-0.091552734375,106.64700663919415,81.72609890109891,-23.935176282051284
711,0.362548828125,0.915771484375,0.27685546875,0.1220703125,2.899169921875,-0.3662109375,106.82564484126983,82.2602564102564,-23.07419871794872
712,0.36572265625,0.908447265625,0.2744140625,0.1220703125,1.861572265625,-0.518798828125,107.00428304334554,82.79441391941393,-20.835657051282052
713,0.349853515625,0.909423828125,0.28125,0.335693359375,1.922607421875,-0.152587890625,106.46836843711843,82.2602564102564,-22.729807692307695
714,0.353271484375,0.910400390625,0.277587890625,0.579833984375,2.288818359375,-0.213623046875,107.00428304334554,81.72609890109891,-21.180048076923075
715,0.36865234375,0.908935546875,0.267822265625,0.396728515625,3.448486328125,-0.457763671875,107.36155944749694,81.72609890109891,-23.590785256410253
716,0.353759765625,0.906494140625,0.27734375,0.579833984375,0.79345703125,-0.8544921875,108.25475045787545,82.2602564102564,-22.385416666666664
717,0.353515625,0.92041015625,0.269287109375,0.91552734375,3.23486328125,-0.18310546875,108.25475045787545,81.9041514041514,-22.729807692307695
718,0.3681640625,0.908203125,0.268310546875,0.8544921875,3.72314453125,-0.244140625,107.54019764957263,81.5480463980464,-22.729807692307695
719,0.365234375,0.913818359375,0.265869140625,0.946044921875,1.953125,-0.54931640625,107.71883585164835,82.43830891330892,-21.524439102564102
720,0.365966796875,0.918212890625,0.274169921875,-0.274658203125,1.129150390625,-0.579833984375,108.25475045787545,81.5480463980464,-22.729807692307695
721,0.357177734375,0.90869140625,0.2587890625,1.190185546875,2.9296875,-0.213623046875,107.71883585164835,81.72609890109891,-21.524439102564102
722,0.3681640625,0.91455078125,0.27783203125,0.152587890625,0.1220703125,-0.579833984375,108.61202686202687,82.97246642246641,-21.352243589743587
723,0.357666015625,0.905029296875,0.27978515625,0.640869140625,3.0517578125,-0.1220703125,107.71883585164835,82.0822039072039,-21.524439102564102
724,0.354736328125,0.909423828125,0.276611328125,0.244140625,2.38037109375,0.274658203125,108.25475045787545,82.61636141636141,-22.04102564102564
725,0.3701171875,0.913818359375,0.259521484375,0.823974609375,4.2724609375,-0.3662109375,107.71883585164835,83.15051892551892,-22.557612179487176
726,0.357666015625,0.91162109375,0.26708984375,0.518798828125,2.471923828125,-0.3662109375,105.93245383089133,82.79441391941393,-22.557612179487176
727,0.361083984375,0.916748046875,0.2802734375,-0.091552734375,2.899169921875,-0.3662109375,105.75381562881563,82.2602564102564,-22.385416666666664
728,0.352294921875,0.912109375,0.28955078125,0.0,2.105712890625,-0.213623046875,107.36155944749694,83.50662393162393,-20.835657051282052
729,0.358154296875,0.90673828125,0.279296875,0.67138671875,1.953125,0.06103515625,107.89747405372404,81.9041514041514,-23.762980769230765
730,0.35986328125,0.910400390625,0.26953125,0.335693359375,3.509521484375,-0.091552734375,106.28973023504274,84.57493894993894,-21.524439102564102
731,0.3662109375,0.912841796875,0.2763671875,0.335693359375,2.349853515625,-0.274658203125,107.71883585164835,83.86272893772893,-22.213221153846153
732,0.36474609375,0.910888671875,0.27001953125,0.18310546875,1.89208984375,-0.213623046875,107.54019764957263,82.61636141636141,-23.07419871794872
733,0.354736328125,0.90234375,0.275390625,0.030517578125,2.3193359375,-0.42724609375,107.54019764957263,81.5480463980464,-22.385416666666664
734,0.35791015625,0.9111328125,0.275146484375,0.3662109375,3.143310546875,-0.274658203125,106.82564484126983,82.97246642246641,-21.007852564102564
735,0.35595703125,0.913330078125,0.281494140625,0.091552734375,1.89208984375,-0.30517578125,107.54019764957263,81.9041514041514,-22.385416666666664
736,0.369873046875,0.9091796875,0.27099609375,0.030517578125,1.373291015625,-0.396728515625,106.64700663919415,81.72609890109891,-22.213221153846153
737,0.359130859375,0.90478515625,0.276611328125,0.79345703125,1.007080078125,-0.640869140625,107.36155944749694,83.50662393162393,-22.213221153846153
738,0.35595703125,0.910400390625,0.27294921875,1.068115234375,2.01416015625,-0.274658203125,107.71883585164835,82.79441391941393,-20.835657051282052
739,0.361572265625,0.915771484375,0.2783203125,0.42724609375,1.983642578125,-0.79345703125,106.82564484126983,82.61636141636141,-20.319070512820513
740,0.358154296875,0.91650390625,0.2685546875,1.068115234375,2.0751953125,-0.79345703125,106.46836843711843,83.32857142857142,-22.385416666666664
741,0.36669921875,0.91162109375,0.264404296875,0.518798828125,1.46484375,-0.579833984375,107.00428304334554,83.50662393162393,-22.557612179487176
742,0.345458984375,0.911865234375,0.280029296875,0.518798828125,2.655029296875,-0.54931640625,107.54019764957263,82.2602564102564,-21.352243589743587
743,0.360107421875,0.919189453125,0.26806640625,0.274658203125,2.9296875,-0.3662109375,108.25475045787545,82.61636141636141,-21.352243589743587
744,0.3642578125,0.9091796875,0.268798828125,0.1220703125,2.655029296875,0.091552734375,104.86062461843711,82.79441391941393,-21.86883012820513
745,0.35888671875,0.911865234375,0.27490234375,0.518798828125,3.509521484375,-0.1220703125,107.71883585164835,81.01388888888889,-21.86883012820513
746,0.36083984375,0.91015625,0.282470703125,-0.030517578125,1.922607421875,-0.244140625,107.89747405372404,82.61636141636141,-22.729807692307695
747,0.354248046875,0.908203125,0.275390625,0.3662109375,1.007080078125,-0.030517578125,107.00428304334554,83.50662393162393,-21.180048076923075
748,0.358154296875,0.911376953125,0.28076171875,0.54931640625,3.0517578125,-0.244140625,108.61202686202687,83.68467643467642,-22.729807692307695
749,0.359375,0.9150390625,0.281494140625,0.030517578125,2.471923828125,0.1220703125,105.75381562881563,82.2602564102564,-22.04102564102564
750,0.356689453125,0.90869140625,0.276123046875,-0.06103515625,2.62451171875,-0.30517578125,106.11109203296702,81.19194139194138,-22.729807692307695
751,0.355712890625,0.914794921875,0.284423828125,0.30517578125,1.617431640625,-0.213623046875,108.43338865995115,83.15051892551892,-21.86883012820513
752,0.34814453125,0.915283203125,0.284912109375,0.42724609375,3.0517578125,0.091552734375,107.36155944749694,82.43830891330892,-22.213221153846153
753,0.359375,0.9140625,0.269287109375,0.1220703125,1.129150390625,0.762939453125,104.86062461843711,83.50662393162393,-23.590785256410253
754,0.372314453125,0.90478515625,0.282470703125,0.030517578125,0.885009765625,-0.244140625,107.71883585164835,82.43830891330892,-20.491266025641025
755,0.357177734375,0.913330078125,0.285400390625,0.091552734375,1.89208984375,-0.213623046875,106.46836843711843,81.9041514041514,-20.66346153846154
756,0.36083984375,0.906982421875,0.27294921875,0.67138671875,3.0517578125,-0.213623046875,107.54019764957263,82.97246642246641,-22.385416666666664
757,0.3662109375,0.90966796875,0.2724609375,0.762939453125,2.5634765625,-0.67138671875,107.36155944749694,82.43830891330892,-21.86883012820513
758,0.360107421875,0.9072265625,0.279052734375,0.213623046875,1.64794921875,-0.18310546875,108.07611225579976,82.43830891330892,-22.557612179487176
759,0.35986328125,0.90625,0.269287109375,0.885009765625,3.41796875,-0.213623046875,106.28973023504274,81.72609890109891,-21.86883012820513
760,0.364501953125,0.907958984375,0.259521484375,1.03759765625,5.218505859375,-0.701904296875,107.00428304334554,82.79441391941393,-22.557612179487176
761,0.375,0.91015625,0.27001953125,0.152587890625,-0.42724609375,-1.007080078125,106.28973023504274,82.43830891330892,-22.213221153846153
762,0.356689453125,0.928466796875,0.279052734375,0.579833984375,2.105712890625,-0.762939453125,107.36155944749694,84.57493894993894,-22.902003205128207
763,0.361083984375,0.910400390625,0.27734375,-0.091552734375,-0.823974609375,-0.48828125,108.79066506410255,83.50662393162393,-23.24639423076923
764,0.358154296875,0.912353515625,0.271240234375,0.732421875,3.11279296875,-0.1220703125,107.36155944749694,83.15051892551892,-22.902003205128207
765,0.33935546875,0.898193359375,0.29443359375,1.0986328125,1.434326171875,0.396728515625,106.11109203296702,81.9041514041514,-21.007852564102564
766,0.38427734375,0.90771484375,0.249267578125,1.708984375,8.575439453125,1.28173828125,107.18292124542124,82.2602564102564,-20.319070512820513
767,0.340087890625,0.895263671875,0.26904296875,1.434326171875,3.082275390625,-0.762939453125,107.71883585164835,81.36999389499388,-22.557612179487176
768,0.402099609375,0.90966796875,0.242431640625,0.518798828125,6.256103515625,-0.244140625,107.54019764957263,82.2602564102564,-21.696634615384617
769,0.326171875,0.884033203125,0.26220703125,1.312255859375,5.7373046875,-1.64794921875,107.71883585164835,82.0822039072039,-21.524439102564102
770,0.4130859375,0.900146484375,0.2392578125,-0.67138671875,0.732421875,-1.03759765625,107.71883585164835,81.72609890109891,-21.180048076923075
771,0.306640625,0.88671875,0.291015625,1.708984375,4.7607421875,-0.579833984375,107.00428304334554,82.0822039072039,-21.180048076923075
772,0.421142578125,0.909912109375,0.2373046875,0.732421875,5.2490234375,-0.42724609375,107.18292124542124,81.9041514041514,-21.007852564102564
773,0.34326171875,0.91357421875,0.2841796875,-0.79345703125,-2.044677734375,-0.1220703125,109.68385607448107,81.19194139194138,-21.696634615384617
774,0.363037109375,0.911865234375,0.271728515625,0.946044921875,3.997802734375,0.030517578125,106.82564484126983,82.61636141636141,-22.385416666666664
775,0.362548828125,0.919921875,0.266845703125,0.732421875,4.425048828125,-0.30517578125,108.25475045787545,82.61636141636141,-21.696634615384617
776,0.36376953125,0.918212890625,0.278564453125,-0.6103515625,0.54931640625,-0.91552734375,107.18292124542124,83.32857142857142,-21.696634615384617
777,0.3701171875,0.90966796875,0.273681640625,-0.030517578125,1.46484375,0.030517578125,106.28973023504274,82.43830891330892,-21.180048076923075
778,0.35107421875,0.92236328125,0.28271484375,-0.06103515625,1.495361328125,0.091552734375,106.64700663919415,81.36999389499388,-21.524439102564102
779,0.353271484375,0.916748046875,0.288330078125,0.335693359375,0.48828125,-0.79345703125,105.93245383089133,81.72609890109891,-22.213221153846153
780,0.37744140625,0.9130859375,0.259521484375,1.495361328125,4.730224609375,-0.091552734375,106.46836843711843,82.97246642246641,-21.007852564102564
781,0.35986328125,0.921630859375,0.265869140625,0.396728515625,1.89208984375,-2.0751953125,107.89747405372404,82.61636141636141,-22.385416666666664
782,0.368896484375,0.9052734375,0.28466796875,-1.007080078125,-2.74658203125,-0.6103515625,108.43338865995115,81.72609890109891,-22.557612179487176
783,0.33837890625,0.903564453125,0.269775390625,1.861572265625,6.89697265625,-1.068115234375,107.36155944749694,82.79441391941393,-20.146874999999998
784,0.391357421875,0.9140625,0.279052734375,-1.373291015625,-3.47900390625,-1.03759765625,107.54019764957263,82.61636141636141,-22.04102564102564
785,0.33349609375,0.9091796875,0.280029296875,1.190185546875,2.86865234375,-0.1220703125,106.82564484126983,82.61636141636141,-21.696634615384617
786,0.3642578125,0.904296875,0.258544921875,0.6103515625,3.265380859375,-0.91552734375,107.18292124542124,81.19194139194138,-21.696634615384617
787,0.378173828125,0.910888671875,0.2646484375,0.091552734375,0.457763671875,-0.091552734375,107.54019764957263,82.2602564102564,-21.696634615384617
788,0.341552734375,0.915283203125,0.273193359375,-0.06103515625,1.373291015625,0.335693359375,107.00428304334554,82.43830891330892,-21.180048076923075
789,0.35107421875,0.895263671875,0.26806640625,1.434326171875,5.92041015625,-0.18310546875,107.71883585164835,83.15051892551892,-22.557612179487176
790,0.394287109375,0.912841796875,0.254638671875,0.91552734375,3.41796875,-0.091552734375,107.54019764957263,81.19194139194138,-22.04102564102564
791,0.352294921875,0.922607421875,0.2744140625,-0.274658203125,1.190185546875,-0.030517578125,107.71883585164835,82.43830891330892,-21.180048076923075
792,0.3505859375,0.90625,0.27880859375,0.518798828125,4.2724609375,-0.79345703125,108.07611225579976,81.72609890109891,-21.180048076923075
793,0.379638671875,0.91796875,0.261962890625,0.54931640625,2.99072265625,-0.091552734375,107.18292124542124,82.61636141636141,-20.66346153846154
794,0.353271484375,0.9150390625,0.276611328125,-0.396728515625,0.457763671875,0.152587890625,108.07611225579976,82.0822039072039,-21.524439102564102
795,0.350830078125,0.8994140625,0.28662109375,0.67138671875,0.885009765625,0.244140625,106.28973023504274,82.79441391941393,-22.213221153846153
796,0.37255859375,0.90771484375,0.2626953125,1.8310546875,6.378173828125,0.732421875,107.00428304334554,82.79441391941393,-21.86883012820513
797,0.35498046875,0.913330078125,0.274169921875,-0.030517578125,0.335693359375,-0.152587890625,107.00428304334554,81.36999389499388,-21.524439102564102
798,0.364990234375,0.904296875,0.26220703125,1.28173828125,5.31005859375,-0.885009765625,107.89747405372404,82.2602564102564,-21.696634615384617
799,0.373779296875,0.914794921875,0.267578125,0.732421875,2.9296875,0.152587890625,107.18292124542124,81.9041514041514,-21.352243589743587
800,0.360107421875,0.909912109375,0.27099609375,-0.30517578125,1.46484375,-0.8544921875,107.36155944749694,83.86272893772893,-22.213221153846153
801,0.3759765625,0.90771484375,0.249267578125,1.0986328125,5.218505859375,-0.640869140625,106.46836843711843,83.32857142857142,-19.974679487179486
802,0.359130859375,0.90869140625,0.265625,-0.06103515625,0.8544921875,-1.708984375,107.54019764957263,82.2602564102564,-20.66346153846154
803,0.3720703125,0.9072265625,0.268310546875,0.67138671875,2.74658203125,-0.48828125,107.54019764957263,82.2602564102564,-20.66346153846154
804,0.359130859375,0.915771484375,0.274169921875,-0.030517578125,1.220703125,-0.213623046875,107.18292124542124,82.97246642246641,-21.696634615384617
805,0.351318359375,0.913330078125,0.279052734375,0.732421875,1.556396484375,-0.518798828125,108.79066506410255,83.15051892551892,-21.86883012820513
806,0.3662109375,0.90966796875,0.27734375,0.518798828125,1.983642578125,-0.67138671875,106.46836843711843,81.5480463980464,-21.696634615384617
807,0.3515625,0.91552734375,0.275390625,0.48828125,1.068115234375,-0.18310546875,106.46836843711843,81.9041514041514,-22.729807692307695
808,0.353759765625,0.914794921875,0.27587890625,1.15966796875,4.45556640625,0.396728515625,107.36155944749694,81.36999389499388,-22.213221153846153
809,0.37109375,0.91015625,0.271240234375,0.518798828125,4.791259765625,-0.6103515625,108.25475045787545,82.2602564102564,-22.729807692307695
810,0.356689453125,0.912353515625,0.27001953125,0.396728515625,2.197265625,0.06103515625,107.71883585164835,82.0822039072039,-22.213221153846153
811,0.36474609375,0.91943359375,0.27392578125,0.396728515625,2.227783203125,0.030517578125,107.18292124542124,83.32857142857142,-20.319070512820513
812,0.334228515625,0.906982421875,0.27001953125,0.54931640625,6.7138671875,-0.48828125,107.89747405372404,81.9041514041514,-21.696634615384617
813,0.385498046875,0.9111328125,0.253173828125,0.274658203125,1.64794921875,-0.030517578125,107.71883585164835,83.50662393162393,-20.146874999999998
814,0.3408203125,0.911865234375,0.291015625,0.0,-0.213623046875,-0.213623046875,105.57517742673991,81.72609890109891,-22.213221153846153
815,0.365478515625,0.9091796875,0.2783203125,0.640869140625,1.739501953125,0.48828125,108.79066506410255,81.01388888888889,-22.557612179487176
816,0.367919921875,0.91064453125,0.2734375,0.701904296875,0.3662109375,-0.030517578125,107.36155944749694,82.0822039072039,-21.180048076923075
817,0.370361328125,0.913330078125,0.27392578125,0.732421875,2.38037109375,0.79345703125,107.54019764957263,81.5480463980464,-21.007852564102564
818,0.35498046875,0.901611328125,0.275390625,0.823974609375,2.838134765625,0.152587890625,107.00428304334554,82.0822039072039,-20.835657051282052
819,0.376953125,0.906494140625,0.272216796875,1.0986328125,5.67626953125,0.06103515625,107.00428304334554,82.0822039072039,-21.180048076923075
820,0.3564453125,0.918701171875,0.264892578125,0.8544921875,7.049560546875,-1.28173828125,108.07611225579976,81.72609890109891,-21.524439102564102
821,0.374755859375,0.905517578125,0.272705078125,-0.67138671875,1.373291015625,-1.983642578125,107.36155944749694,82.0822039072039,-20.835657051282052
822,0.358642578125,0.913818359375,0.277099609375,0.8544921875,2.777099609375,-0.091552734375,107.00428304334554,82.43830891330892,-21.524439102564102
823,0.333251953125,0.901611328125,0.2900390625,1.46484375,1.800537109375,-0.79345703125,107.18292124542124,81.9041514041514,-22.04102564102564
824,0.40283203125,0.90673828125,0.2412109375,1.556396484375,3.814697265625,0.30517578125,107.36155944749694,82.79441391941393,-22.213221153846153
825,0.306640625,0.885498046875,0.30419921875,2.01416015625,-0.579833984375,0.244140625,107.18292124542124,82.2602564102564,-23.07419871794872
826,0.430908203125,0.93017578125,0.23876953125,2.716064453125,8.30078125,1.190185546875,107.36155944749694,82.79441391941393,-21.180048076923075
