,ax,ay,az,gx,gy,gz,mx,my,mz
0,0.002197265625,0.725830078125,0.214599609375,25.69580078125,-31.280517578125,25.32958984375,15.898799984737483,66.05747863247863,-51.14206730769231
1,0.179931640625,0.9931640625,0.14990234375,13.7939453125,-29.35791015625,0.91552734375,12.861950549450547,65.16721611721611,-50.96987179487179
2,0.13818359375,0.947265625,0.1787109375,6.256103515625,-1.495361328125,9.09423828125,12.683312347374846,64.27695360195361,-48.73133012820513
3,0.23388671875,0.994140625,0.174072265625,-6.622314453125,-4.486083984375,5.126953125,12.326035943223442,64.98916361416362,-49.07572115384615
4,0.25732421875,0.92236328125,0.18115234375,-8.758544921875,34.820556640625,13.00048828125,14.469694368131867,62.49642857142857,-49.42011217948718
5,0.196533203125,0.90234375,0.20947265625,-3.021240234375,25.57373046875,12.75634765625,11.611483134920634,61.78421855921856,-50.453285256410254
6,0.162109375,0.96337890625,0.26708984375,4.638671875,34.698486328125,9.857177734375,10.718292124542124,60.18174603174603,-50.96987179487179
7,0.180419921875,0.93701171875,0.220947265625,4.638671875,14.678955078125,3.021240234375,10.539653922466423,60.35979853479853,-51.48645833333333
8,0.107666015625,0.932373046875,0.259765625,4.486083984375,18.310546875,-1.89208984375,12.14739774114774,59.11343101343101,-52.3474358974359
9,0.124267578125,0.97900390625,0.23486328125,9.613037109375,-9.70458984375,-7.537841796875,10.896930326617825,58.22316849816849,-53.20841346153846
10,0.180908203125,0.973388671875,0.20068359375,3.509521484375,-6.683349609375,-7.50732421875,11.611483134920634,62.14032356532356,-53.89719551282051
11,0.142333984375,0.978515625,0.228515625,-1.5869140625,-6.500244140625,-7.62939453125,10.718292124542124,61.60616605616606,-53.03621794871795
12,0.11474609375,0.990234375,0.204833984375,-1.953125,-7.14111328125,-5.828857421875,12.861950549450547,63.38669108669108,-53.38060897435897
13,0.148681640625,0.966552734375,0.232421875,-8.026123046875,-17.9443359375,-15.9912109375,12.326035943223442,61.78421855921856,-52.51963141025641
14,0.0791015625,0.975341796875,0.199462890625,0.54931640625,15.31982421875,-14.739990234375,12.14739774114774,63.030586080586076,-51.314262820512816
15,0.0654296875,1.0234375,0.2265625,-4.82177734375,-11.871337890625,-13.0615234375,12.683312347374846,63.9208485958486,-51.48645833333333
16,0.010986328125,1.021728515625,0.2314453125,-7.14111328125,-9.3994140625,-19.317626953125,13.576503357753358,64.0989010989011,-50.62548076923077
17,0.050048828125,0.96142578125,0.23193359375,-14.46533203125,-16.9677734375,-25.5126953125,15.54152358058608,67.12579365079365,-48.3869391025641
18,0.056396484375,1.005615234375,0.19482421875,-8.514404296875,-0.274658203125,-7.598876953125,16.077438186813186,69.79658119658119,-49.592307692307685
19,-0.054443359375,0.969482421875,0.210205078125,11.566162109375,21.026611328125,19.53125,16.43471459096459,69.08437118437118,-50.281089743589746
20,-0.15966796875,0.96630859375,0.223876953125,18.768310546875,21.42333984375,17.425537109375,15.362885378510379,66.59163614163614,-50.62548076923077
21,-0.01220703125,1.000732421875,0.144775390625,-3.631591796875,-46.783447265625,7.9345703125,15.720161782661782,65.87942612942612,-50.281089743589746
22,0.066162109375,0.957275390625,0.109130859375,1.89208984375,11.260986328125,6.500244140625,13.933779761904761,65.52332112332113,-49.592307692307685
23,-0.107421875,0.95458984375,0.094970703125,3.875732421875,17.303466796875,2.960205078125,15.005608974358974,64.0989010989011,-50.62548076923077
24,-0.04443359375,1.056396484375,0.291259765625,14.556884765625,-50.23193359375,-26.641845703125,13.933779761904761,65.87942612942612,-48.559134615384615
25,0.152587890625,1.11181640625,0.349609375,6.500244140625,-54.290771484375,-46.417236328125,15.362885378510379,66.23553113553113,-47.18157051282051
26,0.02734375,0.88916015625,0.23974609375,-10.55908203125,-53.466796875,-23.406982421875,19.650202228327228,69.79658119658119,-43.048878205128204
27,-0.027099609375,0.969970703125,0.254150390625,-6.65283203125,-75.042724609375,-12.725830078125,20.72203144078144,70.1526862026862,-39.260576923076925
28,0.054931640625,0.919677734375,0.205810546875,-6.34765625,-72.509765625,-16.815185546875,21.972498855311354,66.05747863247863,-33.578125
29,-0.007080078125,0.986572265625,0.217041015625,12.664794921875,-48.828125,-0.091552734375,22.151137057387054,64.0989010989011,-30.65080128205128
30,-0.071533203125,0.94873046875,0.276611328125,8.209228515625,-50.323486328125,-6.072998046875,20.364755036630036,64.0989010989011,-29.617628205128206
31,0.070068359375,0.966552734375,0.22607421875,7.904052734375,-57.06787109375,-6.2255859375,21.61522245115995,60.35979853479853,-25.312740384615385
32,0.126708984375,1.00927734375,0.19189453125,2.288818359375,-5.9814453125,-10.7421875,22.151137057387054,59.46953601953602,-24.107371794871796
33,0.017578125,1.00634765625,0.10205078125,-3.2958984375,-4.058837890625,-27.862548828125,22.508413461538463,58.757326007326,-24.107371794871796
34,0.07373046875,1.110595703125,0.068603515625,-11.04736328125,-59.234619140625,-20.538330078125,21.79386065323565,58.757326007326,-23.762980769230765
35,0.072265625,0.934326171875,0.06005859375,-16.2353515625,-35.247802734375,-16.29638671875,26.081177503052505,55.908485958485954,-20.146874999999998
36,0.063720703125,0.970947265625,0.056884765625,1.556396484375,-20.1416015625,-8.209228515625,27.331644917582416,54.66211843711844,-20.146874999999998
37,0.169677734375,1.001708984375,0.117919921875,19.287109375,-52.398681640625,-13.24462890625,26.97436851343101,53.59380341880341,-17.391746794871793
38,0.210693359375,1.009033203125,0.1064453125,33.294677734375,42.999267578125,-7.9345703125,24.116157280219777,51.81327838827839,-17.73613782051282
39,0.004638671875,1.05029296875,0.118896484375,19.073486328125,38.87939453125,-5.218505859375,23.044328067765566,56.798748473748475,-21.524439102564102
40,0.136474609375,1.0341796875,0.074462890625,0.30517578125,21.728515625,8.056640625,22.508413461538463,58.04511599511599,-22.04102564102564
41,0.11767578125,1.0634765625,0.11376953125,-15.80810546875,23.4375,22.94921875,22.508413461538463,58.757326007326,-24.107371794871796
42,-0.01953125,1.123046875,0.080810546875,-9.185791015625,64.8193359375,53.192138671875,23.044328067765566,60.003693528693525,-23.935176282051284
43,-0.085205078125,0.939208984375,0.171630859375,-20.56884765625,20.233154296875,34.36279296875,20.186116834554333,56.798748473748475,-26.001522435897435
44,0.176025390625,0.986572265625,0.1259765625,-6.317138671875,2.166748046875,21.78955078125,20.90066964285714,56.798748473748475,-25.657131410256408
45,0.18115234375,0.916259765625,0.1318359375,26.641845703125,82.6416015625,18.829345703125,19.650202228327228,56.62069597069597,-27.895673076923075
46,0.008544921875,1.016357421875,0.150390625,39.97802734375,92.22412109375,15.106201171875,16.613352793040292,60.71590354090354,-33.92251602564102
47,0.035400390625,1.002685546875,0.179443359375,26.397705078125,52.490234375,4.82177734375,15.898799984737483,63.9208485958486,-37.7108173076923
48,0.076904296875,1.01611328125,0.1669921875,11.260986328125,39.24560546875,8.97216796875,14.826970772283273,63.564743589743586,-43.56546474358974
49,0.058349609375,1.021240234375,0.14794921875,1.5869140625,19.83642578125,3.082275390625,14.648332570207568,62.31837606837607,-42.704487179487174
50,0.11572265625,1.051025390625,0.052490234375,1.251220703125,49.346923828125,-2.777099609375,15.54152358058608,62.49642857142857,-44.59863782051282
51,0.025146484375,1.102294921875,0.04443359375,-12.451171875,9.796142578125,-16.11328125,15.898799984737483,65.34526862026861,-48.3869391025641
52,0.11865234375,0.960693359375,-0.046875,-23.345947265625,-9.09423828125,-24.078369140625,18.22109661172161,64.4550061050061,-45.45961538461539
53,0.052001953125,0.972412109375,0.029296875,-11.383056640625,11.077880859375,-15.07568359375,17.506543803418804,69.08437118437118,-46.49278846153846
54,0.091552734375,1.016845703125,0.063720703125,-3.997802734375,-8.087158203125,-5.035400390625,18.399734813797313,68.55021367521368,-44.943028846153844
55,0.180908203125,0.991943359375,0.041748046875,7.01904296875,32.867431640625,5.126953125,20.543393238705736,68.55021367521368,-45.287419871794874
56,0.122314453125,1.02783203125,0.01513671875,12.5732421875,74.89013671875,14.6484375,18.93564942002442,68.72826617826618,-49.592307692307685
57,0.075439453125,1.029541015625,-0.021240234375,3.7841796875,80.56640625,27.7099609375,16.791990995115995,67.65995115995116,-54.75817307692308
58,0.074951171875,1.060546875,-0.051513671875,-7.049560546875,73.30322265625,29.144287109375,15.720161782661782,64.4550061050061,-55.79134615384615
59,0.057373046875,0.991455078125,-0.00830078125,-13.7939453125,57.525634765625,21.331787109375,14.648332570207568,63.030586080586076,-59.579647435897435
60,0.083984375,1.1435546875,0.24072265625,17.181396484375,19.22607421875,32.623291015625,12.861950549450547,59.11343101343101,-59.579647435897435
61,-0.080810546875,0.940185546875,0.273193359375,41.50390625,123.199462890625,18.402099609375,14.112417963980462,56.08653846153845,-62.50697115384615
62,0.1015625,0.973388671875,0.182373046875,18.24951171875,41.473388671875,2.410888671875,14.291056166056165,51.99133089133089,-66.46746794871795
63,0.10107421875,0.958740234375,0.1103515625,18.5546875,92.315673828125,7.2021484375,13.933779761904761,52.703540903540905,-68.53381410256411
64,-0.039306640625,0.98974609375,0.168212890625,5.584716796875,10.1318359375,3.0517578125,15.54152358058608,46.47170329670329,-68.70600961538462
65,0.064453125,1.045166015625,0.14111328125,-5.462646484375,-39.55078125,-18.402099609375,14.826970772283273,49.32054334554335,-69.39479166666666
66,0.123291015625,1.28466796875,0.040283203125,-4.94384765625,-65.216064453125,11.016845703125,14.826970772283273,51.45717338217338,-68.01722756410255
67,0.033447265625,0.9521484375,0.04638671875,-28.38134765625,-43.88427734375,-3.570556640625,15.184247176434676,53.23769841269841,-67.67283653846154
68,0.280029296875,0.99609375,-0.017822265625,7.293701171875,43.27392578125,1.03759765625,13.040588751526252,54.30601343101343,-66.98405448717949
69,-0.0068359375,0.842529296875,0.046142578125,12.26806640625,82.70263671875,30.181884765625,14.469694368131867,52.169383394383395,-68.36161858974359
70,0.056640625,0.94384765625,0.0712890625,6.683349609375,-6.195068359375,6.744384765625,14.469694368131867,45.75949328449328,-69.39479166666666
71,0.28125,1.059326171875,0.016845703125,11.474609375,-16.143798828125,0.1220703125,13.219226953601954,47.36196581196581,-68.18942307692308
72,0.0576171875,1.2587890625,0.125244140625,-4.2724609375,-80.535888671875,-2.166748046875,15.005608974358974,49.49859584859585,-69.9113782051282
73,0.311767578125,1.02734375,0.00732421875,-19.744873046875,-45.013427734375,1.03759765625,14.826970772283273,53.23769841269841,-65.60649038461538
74,-0.125,1.016845703125,0.1826171875,-22.003173828125,-25.604248046875,-16.326904296875,13.933779761904761,53.77185592185592,-65.77868589743589
75,0.239013671875,0.761962890625,0.0244140625,-34.820556640625,-123.046875,-39.031982421875,13.040588751526252,57.15485347985348,-61.47379807692307
76,0.44921875,0.92431640625,0.126953125,10.009765625,19.71435546875,-30.548095703125,14.648332570207568,62.67448107448107,-57.51330128205128
77,0.165771484375,1.018310546875,0.069580078125,24.078369140625,57.31201171875,19.989013671875,16.077438186813186,64.0989010989011,-59.23525641025641
78,-0.094970703125,1.2412109375,0.19921875,9.09423828125,-1.64794921875,15.80810546875,16.077438186813186,61.25006105006105,-61.30160256410256
79,0.21875,1.028564453125,0.021484375,-15.31982421875,-5.37109375,38.9404296875,15.005608974358974,60.537851037851034,-61.64599358974359
80,0.213134765625,0.9599609375,-0.01171875,24.627685546875,126.007080078125,52.093505859375,13.397865155677655,56.08653846153845,-62.851362179487175
81,-0.021728515625,0.847412109375,0.05615234375,1.15966796875,50.506591796875,35.003662109375,13.397865155677655,50.03275335775336,-66.98405448717949
82,0.296142578125,1.039794921875,0.03857421875,-6.34765625,-55.84716796875,-7.659912109375,13.219226953601954,47.718070818070814,-65.43429487179486
83,0.258056640625,1.07421875,0.07470703125,-1.5869140625,-11.53564453125,-17.15087890625,12.504674145299145,50.21080586080586,-63.367948717948714
84,-0.007080078125,1.07568359375,0.153564453125,-12.20703125,-106.50634765625,-61.58447265625,13.040588751526252,55.73043345543345,-62.16258012820513
85,-0.03271484375,1.139892578125,0.18115234375,-30.76171875,-90.362548828125,-29.632568359375,13.397865155677655,58.5792735042735,-59.06306089743589
86,0.159423828125,0.67578125,0.037353515625,-30.8837890625,-98.0224609375,-47.30224609375,15.898799984737483,64.6330586080586,-54.58597756410256
87,0.5517578125,0.920166015625,0.038330078125,4.33349609375,-33.203125,-31.951904296875,16.791990995115995,64.8111111111111,-48.21474358974359
88,0.225830078125,0.951904296875,0.12255859375,19.775390625,49.560546875,-3.082275390625,17.3279056013431,67.48189865689865,-49.07572115384615
89,-0.055908203125,1.172119140625,0.23388671875,21.820068359375,11.810302734375,5.92041015625,16.970629197191695,66.76968864468864,-52.86402243589744
90,0.09375,0.97802734375,0.0849609375,2.838134765625,16.937255859375,40.740966796875,16.613352793040292,66.76968864468864,-53.20841346153846
91,0.145751953125,1.009033203125,0.053466796875,6.072998046875,60.546875,48.7060546875,14.826970772283273,61.072008547008544,-54.24158653846153
92,0.051513671875,0.8388671875,0.068115234375,2.38037109375,53.955078125,46.08154296875,10.896930326617825,56.08653846153845,-59.06306089743589
93,0.189208984375,0.8720703125,0.056640625,-1.46484375,-37.78076171875,11.41357421875,11.254206730769232,52.5254884004884,-57.34110576923077
94,0.344970703125,0.98583984375,0.10009765625,-3.692626953125,-33.75244140625,-21.697998046875,12.326035943223442,52.169383394383395,-56.65232371794871
95,0.34033203125,1.173095703125,0.08740234375,-20.263671875,-45.7763671875,-41.1376953125,10.718292124542124,55.908485958485954,-54.75817307692308
96,-0.05322265625,1.0048828125,0.070556640625,-13.397216796875,-37.139892578125,-51.971435546875,13.040588751526252,62.14032356532356,-52.17524038461538
97,0.09619140625,1.01611328125,0.095703125,-37.384033203125,-99.67041015625,-25.909423828125,14.469694368131867,63.20863858363858,-46.320592948717945
98,0.191650390625,0.795166015625,0.0595703125,-21.331787109375,-41.50390625,-33.660888671875,16.970629197191695,63.20863858363858,-40.81033653846154
99,0.3779296875,0.91552734375,0.09375,12.51220703125,6.011962890625,-25.57373046875,17.863820207570207,63.74279609279609,-38.916185897435895
100,0.10009765625,0.97021484375,0.11474609375,7.781982421875,42.54150390625,-2.86865234375,17.863820207570207,66.94774114774114,-41.32692307692308
101,0.076904296875,1.089111328125,0.12451171875,10.7421875,-17.15087890625,14.2822265625,16.970629197191695,67.48189865689865,-41.84350961538461
102,0.087158203125,1.024169921875,0.115966796875,18.6767578125,31.6162109375,40.740966796875,15.54152358058608,65.70137362637362,-43.22107371794872
103,0.207275390625,1.112060546875,0.073974609375,14.34326171875,50.78125,28.6865234375,11.611483134920634,61.428113553113555,-45.6318108974359
104,0.072509765625,0.797607421875,-0.009765625,12.5732421875,103.302001953125,27.64892578125,11.611483134920634,60.35979853479853,-49.7645032051282
105,0.14599609375,0.967041015625,0.053466796875,-2.105712890625,-5.06591796875,27.069091796875,10.36101572039072,58.04511599511599,-54.06939102564102
106,0.27099609375,0.966552734375,0.044677734375,6.011962890625,-3.387451171875,-12.237548828125,10.718292124542124,56.97680097680097,-52.00304487179487
107,0.176025390625,1.117431640625,0.1005859375,-7.171630859375,-43.39599609375,-44.158935546875,10.896930326617825,58.22316849816849,-49.42011217948718
108,0.20703125,1.08935546875,0.036376953125,-26.123046875,-100.982666015625,-55.938720703125,13.040588751526252,62.85253357753357,-45.97620192307692
109,0.103271484375,1.04248046875,0.10986328125,-11.29150390625,6.622314453125,16.204833984375,13.75514155982906,62.14032356532356,-42.187900641025635
110,0.06689453125,0.814697265625,0.146240234375,-17.303466796875,-2.197265625,-9.735107421875,13.219226953601954,62.31837606837607,-43.048878205128204
111,0.274169921875,0.89697265625,0.06982421875,-5.706787109375,-1.068115234375,-11.993408203125,13.219226953601954,61.25006105006105,-42.01570512820513
112,0.19775390625,0.923583984375,0.1376953125,23.98681640625,56.57958984375,-7.4462890625,15.005608974358974,62.31837606837607,-41.671314102564104
113,0.100341796875,1.063720703125,0.138427734375,24.749755859375,-5.096435546875,16.2353515625,14.469694368131867,64.6330586080586,-43.90985576923077
114,0.19189453125,1.098388671875,0.0927734375,18.24951171875,-11.65771484375,24.59716796875,13.75514155982906,60.003693528693525,-43.56546474358974
115,0.314453125,1.085693359375,0.0166015625,-8.331298828125,52.276611328125,27.862548828125,12.14739774114774,59.11343101343101,-45.80400641025641
116,0.0810546875,0.885498046875,-0.00146484375,5.43212890625,127.288818359375,41.717529296875,12.14739774114774,56.62069597069597,-52.00304487179487
117,0.057373046875,0.924072265625,0.04931640625,2.0751953125,25.054931640625,36.895751953125,10.003739316239317,54.48406593406593,-54.06939102564102
118,0.301025390625,0.9609375,0.017822265625,8.48388671875,-51.727294921875,-2.899169921875,10.003739316239317,53.77185592185592,-53.03621794871795
119,0.350341796875,1.043212890625,0.072021484375,16.66259765625,-35.70556640625,-24.810791015625,12.326035943223442,56.44264346764347,-54.24158653846153
120,0.311767578125,1.29833984375,0.147705078125,-28.961181640625,-106.99462890625,-23.0712890625,10.896930326617825,57.15485347985348,-49.07572115384615
121,0.146240234375,0.873046875,0.045166015625,-29.754638671875,54.19921875,11.04736328125,13.75514155982906,59.64758852258852,-45.287419871794874
122,0.008544921875,0.98828125,0.145751953125,-34.97314453125,-21.636962890625,-6.4697265625,12.683312347374846,57.51095848595848,-46.320592948717945
123,0.17919921875,0.70654296875,0.078857421875,-8.392333984375,-91.12548828125,-14.404296875,13.397865155677655,56.44264346764347,-40.81033653846154
124,0.5185546875,0.93310546875,0.11474609375,27.130126953125,1.129150390625,-27.923583984375,14.826970772283273,58.5792735042735,-38.39959935897436
125,0.203369140625,0.979736328125,0.060791015625,20.8740234375,22.552490234375,-8.97216796875,12.861950549450547,60.537851037851034,-41.671314102564104
126,0.21044921875,1.255615234375,0.08203125,-1.495361328125,-83.43505859375,-5.31005859375,13.397865155677655,58.93537851037851,-39.432772435897434
127,0.20361328125,0.92822265625,0.050537109375,-19.561767578125,-15.31982421875,-0.823974609375,15.720161782661782,58.757326007326,-36.50544871794872
128,0.376708984375,1.06201171875,-0.033447265625,-0.457763671875,54.5654296875,18.768310546875,16.077438186813186,58.757326007326,-38.916185897435895
129,0.137451171875,0.86376953125,0.031005859375,24.139404296875,119.354248046875,40.679931640625,14.112417963980462,58.93537851037851,-42.532291666666666
130,0.084228515625,0.902587890625,0.05712890625,14.892578125,40.679931640625,19.34814453125,10.896930326617825,57.86706349206349,-46.320592948717945
131,0.252197265625,0.987548828125,0.073486328125,17.2119140625,-24.139404296875,-7.50732421875,11.790121336996338,57.68901098901099,-48.21474358974359
132,0.2998046875,1.063720703125,0.062744140625,10.55908203125,-6.256103515625,-17.76123046875,12.683312347374846,58.5792735042735,-47.69815705128205
133,0.286376953125,1.143798828125,0.072021484375,-36.62109375,-115.17333984375,-10.8642578125,12.683312347374846,60.003693528693525,-44.59863782051282
134,0.046630859375,0.97412109375,0.0595703125,-22.918701171875,80.047607421875,36.07177734375,12.861950549450547,59.46953601953602,-43.393269230769235
135,0.12939453125,0.900390625,0.156005859375,-35.70556640625,-61.21826171875,-6.103515625,13.397865155677655,56.44264346764347,-42.187900641025635
136,0.417236328125,0.830810546875,0.062744140625,2.166748046875,9.490966796875,-4.486083984375,11.432844932844933,55.19627594627595,-37.538621794871794
137,0.24951171875,0.915283203125,0.144287109375,32.8369140625,80.2001953125,-14.678955078125,14.469694368131867,58.5792735042735,-41.84350961538461
138,0.14208984375,0.9873046875,0.144287109375,29.388427734375,37.750244140625,-7.2021484375,12.861950549450547,58.04511599511599,-47.52596153846153
139,0.193359375,1.03857421875,0.1728515625,20.965576171875,-15.350341796875,-6.317138671875,13.397865155677655,61.072008547008544,-48.73133012820513
140,0.303466796875,1.183837890625,0.01708984375,4.33349609375,1.3427734375,4.39453125,14.112417963980462,61.78421855921856,-48.042548076923076
141,0.253662109375,0.91455078125,-0.022216796875,-15.380859375,45.196533203125,1.983642578125,14.469694368131867,62.85253357753357,-49.07572115384615
142,0.3173828125,0.983154296875,-0.133056640625,-13.671875,118.10302734375,6.89697265625,12.861950549450547,60.18174603174603,-52.00304487179487
143,0.147216796875,1.045654296875,-0.126953125,2.13623046875,171.9970703125,21.17919921875,12.504674145299145,59.825641025641026,-54.41378205128205
144,0.015869140625,1.037353515625,-0.04638671875,9.735107421875,139.923095703125,22.39990234375,10.896930326617825,55.73043345543345,-60.78501602564102
145,0.062744140625,1.027099609375,-0.022216796875,6.77490234375,75.775146484375,28.80859375,11.075568528693527,51.635225885225886,-63.367948717948714
146,0.16796875,0.97314453125,-0.063720703125,10.040283203125,73.699951171875,34.11865234375,11.790121336996338,47.36196581196581,-64.4011217948718
147,0.169189453125,1.095947265625,0.029296875,24.0478515625,91.85791015625,60.882568359375,11.075568528693527,40.23986568986569,-64.05673076923077
148,0.238525390625,1.06884765625,0.10009765625,56.427001953125,53.16162109375,48.797607421875,12.861950549450547,34.54218559218559,-65.43429487179486
149,0.14013671875,1.06884765625,0.117431640625,66.22314453125,165.924072265625,42.41943359375,16.791990995115995,26.351770451770452,-65.08990384615385
150,0.157470703125,0.886474609375,0.096923828125,31.982421875,110.16845703125,4.150390625,20.186116834554333,16.558882783882783,-62.851362179487175
151,0.27783203125,1.06201171875,0.003662109375,23.25439453125,120.941162109375,21.728515625,21.972498855311354,11.217307692307692,-58.02988782051282
152,0.14306640625,0.938232421875,0.025146484375,36.07177734375,102.6611328125,13.73291015625,23.044328067765566,4.807417582417582,-51.830849358974355
153,0.109375,0.97705078125,0.187744140625,15.380859375,18.49365234375,-29.815673828125,22.508413461538463,3.917155067155067,-47.18157051282051
154,0.228759765625,1.002197265625,0.116943359375,6.805419921875,26.641845703125,-36.31591796875,20.90066964285714,5.163522588522588,-45.6318108974359
155,0.2880859375,1.173095703125,0.015625,-9.002685546875,15.13671875,-10.040283203125,19.471564026251524,6.2318376068376065,-45.287419871794874
156,0.085693359375,0.98828125,0.007080078125,-4.425048828125,95.794677734375,15.7470703125,19.828840430402927,7.656257631257631,-43.56546474358974
157,0.14013671875,1.03955078125,0.022216796875,-17.242431640625,76.385498046875,30.548095703125,21.436584249084248,3.561050061050061,-37.538621794871794
158,0.1396484375,0.932373046875,0.017578125,-1.0986328125,73.516845703125,39.306640625,23.758880876068375,2.3146825396825395,-32.54495192307692
159,0.088623046875,0.9091796875,0.00830078125,13.671875,57.861328125,39.764404296875,26.438453907203908,1.4244200244200245,-27.55128205128205
160,0.16162109375,0.99169921875,0.169189453125,8.941650390625,-31.18896484375,36.62109375,27.153006715506717,-0.7122100122100122,-27.206891025641024
161,0.426025390625,1.10546875,0.037841796875,10.162353515625,-4.852294921875,5.31005859375,30.725770757020758,-0.3561050061050061,-28.2400641025641
162,0.191162109375,1.162353515625,0.210693359375,-4.364013671875,-21.42333984375,-37.90283203125,27.153006715506717,0.0,-28.58445512820513
163,0.163818359375,0.901611328125,-0.00390625,-22.979736328125,-24.749755859375,-8.148193359375,25.00934829059829,1.4244200244200245,-30.306410256410256
164,0.095458984375,1.0244140625,0.1767578125,-29.84619140625,-45.166015625,-19.4091796875,25.723901098901095,1.7805250305250304,-31.683974358974357
165,0.335205078125,0.806396484375,0.07568359375,-31.951904296875,-54.931640625,-34.66796875,24.652071886446883,1.4244200244200245,-32.028365384615384
166,0.3349609375,0.8837890625,0.0908203125,13.519287109375,55.633544921875,-27.801513671875,23.044328067765566,2.3146825396825395,-34.61129807692308
167,0.056640625,0.93896484375,0.227294921875,28.472900390625,45.562744140625,-27.618408203125,20.543393238705736,5.875732600732601,-29.44543269230769
168,0.16259765625,1.13720703125,0.09130859375,21.514892578125,3.387451171875,11.53564453125,19.471564026251524,8.012362637362637,-29.44543269230769
169,0.18603515625,1.113037109375,0.022705078125,27.923583984375,105.377197265625,48.583984375,19.828840430402927,5.875732600732601,-29.101041666666664
170,0.146728515625,1.112548828125,-0.00830078125,5.828857421875,132.537841796875,68.603515625,22.151137057387054,4.9854700854700855,-24.107371794871796
171,0.008056640625,0.79443359375,0.0185546875,-16.265869140625,79.16259765625,55.267333984375,24.652071886446883,3.917155067155067,-18.597115384615385
172,0.140869140625,0.916259765625,0.086181640625,1.617431640625,-6.011962890625,30.181884765625,29.296665140415136,6.053785103785104,-14.12003205128205
173,0.271240234375,1.028564453125,0.095947265625,11.688232421875,-39.97802734375,-10.711669921875,30.01121794871795,2.1366300366300366,-15.497596153846153
174,0.386962890625,1.234375,0.17138671875,15.350341796875,-34.759521484375,-54.38232421875,26.438453907203908,3.561050061050061,-16.53076923076923
175,0.107177734375,0.96630859375,0.0703125,-7.965087890625,-24.078369140625,-40.924072265625,22.151137057387054,6.053785103785104,-18.94150641025641
176,0.101318359375,0.984130859375,0.0869140625,-6.011962890625,18.524169921875,-7.080078125,20.186116834554333,5.875732600732601,-19.458092948717947
177,0.140869140625,0.836669921875,0.114501953125,-16.510009765625,-10.07080078125,2.86865234375,21.61522245115995,5.163522588522588,-21.524439102564102
178,0.279296875,0.930908203125,0.0849609375,4.69970703125,33.935546875,-15.5029296875,20.543393238705736,5.519627594627594,-19.458092948717947
179,0.07763671875,0.9111328125,0.11474609375,18.6767578125,38.177490234375,-13.946533203125,19.828840430402927,8.724572649572648,-17.73613782051282
180,0.0849609375,1.056884765625,0.216064453125,33.50830078125,-36.529541015625,18.24951171875,19.11428762210012,7.656257631257631,-16.358573717948715
181,0.270751953125,1.01611328125,0.02099609375,1.3427734375,-21.42333984375,33.26416015625,20.007478632478634,4.273260073260073,-20.319070512820513
182,0.338134765625,1.10400390625,0.0087890625,-1.3427734375,63.629150390625,30.029296875,22.32977525946276,3.382997557997558,-19.802483974358974
183,0.080322265625,0.8046875,0.051025390625,8.1787109375,92.498779296875,16.387939453125,23.40160447191697,3.739102564102564,-17.391746794871793
184,0.106689453125,0.880615234375,0.01318359375,8.97216796875,37.017822265625,11.322021484375,23.044328067765566,6.2318376068376065,-14.292227564102564
185,0.26025390625,1.04736328125,0.068603515625,4.913330078125,-59.9365234375,-16.632080078125,23.580242673992675,6.765995115995116,-16.186378205128204
186,0.363525390625,1.07373046875,0.067138671875,6.34765625,-19.805908203125,-41.839599609375,22.32977525946276,4.451312576312576,-16.358573717948715
187,0.081787109375,1.11181640625,0.09716796875,-12.908935546875,-37.04833984375,-32.04345703125,20.007478632478634,4.9854700854700855,-15.497596153846153
188,0.01123046875,0.98828125,0.11572265625,-27.801513671875,3.47900390625,13.3056640625,21.79386065323565,2.848840048840049,-17.90833333333333
189,0.114990234375,0.769775390625,0.116943359375,-21.91162109375,-46.844482421875,-10.955810546875,23.937519078144078,3.2049450549450547,-18.597115384615385
190,0.378173828125,0.822021484375,0.08740234375,7.6904296875,-0.42724609375,-27.40478515625,24.29479548229548,1.7805250305250304,-18.94150641025641
191,0.257080078125,0.946044921875,0.135986328125,16.05224609375,30.21240234375,-27.03857421875,20.186116834554333,5.519627594627594,-19.11370192307692
192,0.1298828125,1.03955078125,0.112548828125,46.661376953125,56.15234375,-0.274658203125,19.292925824175825,5.341575091575091,-18.25272435897436
193,-0.05908203125,1.064697265625,0.121337890625,-0.54931640625,-6.04248046875,13.5498046875,20.543393238705736,5.519627594627594,-19.11370192307692
194,0.305908203125,1.11083984375,-0.04443359375,-7.232666015625,42.90771484375,44.98291015625,24.116157280219777,4.807417582417582,-18.42491987179487
195,0.104248046875,0.81396484375,0.039794921875,0.732421875,67.901611328125,60.11962890625,25.9025393009768,6.2318376068376065,-17.73613782051282
196,0.133544921875,0.908447265625,0.0703125,3.11279296875,-12.847900390625,23.49853515625,29.118026938339437,3.739102564102564,-13.603445512820512
197,0.38525390625,0.9619140625,0.0712890625,-2.960205078125,-55.96923828125,-4.94384765625,28.224835927960925,2.1366300366300366,-16.53076923076923
198,0.341796875,1.10888671875,0.118896484375,9.82666015625,-5.9814453125,-33.172607421875,27.153006715506717,3.561050061050061,-17.563942307692308
199,0.055908203125,1.04833984375,0.074462890625,-0.79345703125,-37.078857421875,-59.478759765625,24.116157280219777,3.739102564102564,-19.11370192307692
200,-0.031005859375,1.094970703125,0.109130859375,-29.388427734375,-39.48974609375,-25.299072265625,24.473433684371184,3.382997557997558,-18.769310897435897
201,0.17724609375,0.77099609375,0.04052734375,-39.1845703125,-109.80224609375,-38.87939453125,25.366624694749692,1.0683150183150183,-23.41858974358974
202,0.52392578125,0.867919921875,-0.000732421875,-1.40380859375,7.14111328125,-30.2734375,23.937519078144078,3.917155067155067,-26.518108974358974
203,0.13671875,0.9755859375,0.11474609375,29.571533203125,82.763671875,-1.46484375,21.61522245115995,5.875732600732601,-23.935176282051284
204,0.014404296875,1.158203125,0.1748046875,16.7236328125,-14.09912109375,20.08056640625,22.32977525946276,4.807417582417582,-21.524439102564102
205,0.18359375,0.995361328125,0.032470703125,7.568359375,26.55029296875,34.48486328125,23.580242673992675,3.561050061050061,-25.140544871794873
206,0.25048828125,1.050048828125,-0.03515625,18.98193359375,117.5537109375,35.5224609375,25.187986492673993,4.807417582417582,-20.491266025641025
207,0.05322265625,0.852783203125,-0.000732421875,2.838134765625,109.649658203125,54.046630859375,28.939388736263734,5.341575091575091,-15.497596153846153
208,0.150390625,0.907470703125,0.031005859375,1.434326171875,25.970458984375,31.06689453125,29.118026938339437,8.012362637362637,-12.22588141025641
209,0.28125,0.927734375,0.086181640625,2.410888671875,-55.48095703125,-23.223876953125,29.832579746642246,6.944047619047619,-13.259054487179487
210,0.456298828125,1.079345703125,0.077392578125,0.91552734375,-37.04833984375,-45.989990234375,29.47530334249084,5.519627594627594,-15.32540064102564
211,0.241455078125,0.968505859375,0.083251953125,15.167236328125,-10.528564453125,-67.3828125,25.366624694749692,6.765995115995116,-15.841987179487178
212,-0.131591796875,1.064453125,0.144775390625,-22.4609375,-15.838623046875,17.913818359375,22.865689865689866,9.970940170940171,-15.153205128205128
213,0.184326171875,0.901611328125,0.09814453125,-23.223876953125,-51.910400390625,-29.449462890625,27.153006715506717,7.122100122100122,-17.21955128205128
214,0.299072265625,0.8095703125,0.0380859375,-7.904052734375,-25.238037109375,-17.63916015625,25.9025393009768,5.163522588522588,-19.802483974358974
215,0.215087890625,0.986083984375,0.195068359375,22.796630859375,15.716552734375,-13.00048828125,25.187986492673993,6.587942612942613,-19.458092948717947
216,0.115234375,1.029541015625,0.1484375,7.01904296875,-6.744384765625,3.84521484375,23.580242673992675,7.122100122100122,-18.25272435897436
217,0.174560546875,1.085693359375,0.076171875,14.892578125,-5.0048828125,13.824462890625,24.83071008852259,5.875732600732601,-19.802483974358974
218,0.27880859375,1.07080078125,0.0087890625,-7.32421875,49.49951171875,22.125244140625,24.473433684371184,6.2318376068376065,-21.86883012820513
219,0.145263671875,0.912841796875,-0.00244140625,14.251708984375,118.377685546875,32.8369140625,25.366624694749692,7.834310134310134,-17.563942307692308
220,0.04345703125,0.91015625,0.03369140625,15.106201171875,52.91748046875,46.051025390625,25.9025393009768,10.50509768009768,-13.603445512820512
221,0.22265625,0.95361328125,0.05224609375,8.23974609375,-35.003662109375,12.939453125,27.867559523809522,8.546520146520146,-14.808814102564103
222,0.37890625,1.03466796875,0.07861328125,11.16943359375,14.7705078125,-8.4228515625,27.153006715506717,7.834310134310134,-14.808814102564103
223,0.24072265625,1.236572265625,0.149658203125,6.317138671875,-24.47509765625,-33.660888671875,25.723901098901095,10.683150183150182,-14.464423076923076
224,0.052001953125,0.865234375,0.0419921875,-20.660400390625,-0.79345703125,0.244140625,25.187986492673993,9.436782661782662,-13.947836538461537
225,0.025634765625,1.031982421875,0.132568359375,-31.707763671875,-33.63037109375,9.6435546875,26.259815705128204,8.012362637362637,-13.947836538461537
226,0.23291015625,0.813232421875,0.094970703125,-16.7236328125,-41.748046875,-23.590087890625,25.723901098901095,6.409890109890109,-16.875160256410254
227,0.31494140625,0.87353515625,0.09912109375,4.21142578125,-8.209228515625,-26.123046875,26.97436851343101,6.2318376068376065,-18.080528846153847
228,0.25244140625,0.94140625,0.156005859375,12.939453125,-5.615234375,-37.811279296875,25.00934829059829,8.546520146520146,-18.25272435897436
229,0.185791015625,1.08154296875,0.17138671875,14.70947265625,-9.09423828125,-13.427734375,21.972498855311354,8.724572649572648,-18.080528846153847
230,0.132568359375,1.068359375,0.083984375,5.462646484375,27.03857421875,7.537841796875,21.79386065323565,8.19041514041514,-19.285897435897436
231,0.2158203125,1.104736328125,-0.00927734375,-13.580322265625,78.30810546875,38.26904296875,23.40160447191697,10.148992673992673,-19.11370192307692
232,0.09423828125,0.86669921875,0.03564453125,3.326416015625,96.0693359375,54.443359375,26.081177503052505,11.395360195360196,-15.841987179487178
233,0.190673828125,0.96533203125,0.005615234375,9.796142578125,37.17041015625,53.77197265625,28.224835927960925,14.244200244200243,-12.398076923076921
234,0.236083984375,0.965087890625,0.072509765625,24.96337890625,22.39990234375,29.35791015625,27.867559523809522,12.819780219780219,-12.053685897435898
235,0.27734375,1.01953125,0.0908203125,25.238037109375,-40.283203125,-3.997802734375,26.259815705128204,12.641727716727717,-13.259054487179487
236,0.5185546875,1.399169921875,0.134765625,3.082275390625,-59.4482421875,-14.495849609375,23.580242673992675,12.463675213675213,-12.742467948717948
237,0.179443359375,0.815673828125,-0.051513671875,-35.09521484375,63.8427734375,13.702392578125,23.937519078144078,11.395360195360196,-13.086858974358975
238,0.1806640625,1.039794921875,0.14306640625,-42.8466796875,-3.90625,-18.829345703125,27.867559523809522,13.888095238095238,-12.053685897435898
239,0.366455078125,0.844482421875,0.113525390625,-40.435791015625,-35.675048828125,-5.0048828125,30.90440895909646,12.997832722832722,-13.259054487179487
240,0.393798828125,0.861328125,0.08447265625,15.2587890625,90.423583984375,0.42724609375,30.01121794871795,13.531990231990232,-12.053685897435898
241,0.0615234375,0.96875,0.251220703125,37.567138671875,77.239990234375,1.15966796875,29.296665140415136,19.941880341880342,-10.676121794871793
242,0.2744140625,0.984375,0.206298828125,31.280517578125,5.06591796875,-3.47900390625,27.688921321733822,22.968772893772893,-11.192708333333332
243,0.2939453125,1.1220703125,0.08056640625,47.4853515625,92.95654296875,10.07080078125,23.937519078144078,24.57124542124542,-10.676121794871793
244,0.18212890625,1.01025390625,-0.010986328125,0.0,109.2529296875,6.317138671875,23.22296626984127,29.200610500610498,-11.70929487179487
245,0.214599609375,0.95263671875,-0.138427734375,-20.111083984375,156.8603515625,10.955810546875,23.937519078144078,36.50076312576312,-14.63661858974359
246,-0.055908203125,1.02001953125,-0.146240234375,-2.99072265625,204.559326171875,50.018310546875,24.473433684371184,47.18391330891331,-18.080528846153847
247,-0.205322265625,1.0302734375,0.095947265625,-11.199951171875,44.952392578125,29.754638671875,23.22296626984127,54.84017094017094,-24.107371794871796
248,0.09228515625,1.00927734375,0.104736328125,-4.45556640625,-67.44384765625,15.472412109375,23.40160447191697,52.5254884004884,-23.24639423076923
249,0.317138671875,0.933837890625,0.06005859375,30.242919921875,32.928466796875,2.960205078125,21.79386065323565,50.92301587301587,-21.696634615384617
250,0.2080078125,1.021484375,0.111083984375,43.39599609375,123.016357421875,14.70947265625,19.292925824175825,54.84017094017094,-27.55128205128205
251,0.11181640625,1.031494140625,0.04443359375,43.9453125,106.87255859375,23.25439453125,18.93564942002442,58.401221001220996,-34.783493589743586
252,0.04150390625,1.2373046875,0.19921875,22.3388671875,11.566162109375,-8.60595703125,18.399734813797313,63.20863858363858,-41.84350961538461
253,0.265869140625,1.06201171875,-0.02734375,8.087158203125,-9.3994140625,-9.857177734375,18.578373015873016,61.962271062271064,-40.638141025641026
254,0.005126953125,1.039794921875,0.109375,-0.67138671875,71.502685546875,30.029296875,16.077438186813186,63.74279609279609,-42.704487179487174
255,0.1416015625,0.927490234375,0.0859375,-14.0380859375,52.91748046875,11.474609375,16.613352793040292,62.49642857142857,-44.25424679487179
256,0.086669921875,0.9404296875,0.115234375,0.274658203125,61.95068359375,5.615234375,14.826970772283273,62.85253357753357,-45.6318108974359
257,0.11279296875,0.887451171875,0.12255859375,19.47021484375,55.511474609375,2.044677734375,13.219226953601954,63.030586080586076,-48.90352564102564
258,0.121826171875,0.970458984375,0.132080078125,28.076171875,29.266357421875,3.35693359375,14.291056166056165,63.030586080586076,-52.00304487179487
259,0.1015625,1.3583984375,0.122314453125,7.049560546875,-9.46044921875,25.87890625,16.25607638888889,63.564743589743586,-55.27475961538462
260,0.126708984375,1.010986328125,0.044921875,-21.54541015625,7.781982421875,11.322021484375,12.504674145299145,61.962271062271064,-54.06939102564102
261,0.194580078125,0.92041015625,-0.052734375,-26.702880859375,35.675048828125,7.720947265625,11.790121336996338,61.962271062271064,-52.691826923076924
262,0.1181640625,1.001708984375,0.0322265625,-1.03759765625,42.877197265625,7.476806640625,10.896930326617825,59.29148351648352,-54.24158653846153
263,0.031982421875,0.941650390625,0.04736328125,8.148193359375,38.4521484375,2.9296875,11.432844932844933,58.401221001220996,-54.41378205128205
264,0.1181640625,0.9931640625,0.028564453125,15.07568359375,19.500732421875,-8.23974609375,12.326035943223442,58.93537851037851,-57.685496794871796
265,0.154541015625,0.995849609375,0.02685546875,28.350830078125,26.55029296875,-4.33349609375,11.968759539072039,60.003693528693525,-58.718669871794866
266,0.15087890625,1.007568359375,0.02685546875,17.791748046875,19.989013671875,-8.026123046875,14.112417963980462,61.072008547008544,-61.129407051282044
267,0.1962890625,1.093994140625,-0.0166015625,1.15966796875,11.53564453125,1.64794921875,15.005608974358974,60.537851037851034,-63.71233974358974
268,0.23486328125,1.0869140625,0.066650390625,2.777099609375,27.34375,15.93017578125,14.648332570207568,59.825641025641026,-60.26842948717948
269,-0.143798828125,0.903076171875,0.140869140625,-18.00537109375,52.18505859375,30.853271484375,13.397865155677655,57.51095848595848,-62.16258012820513
270,0.150634765625,1.04296875,0.14404296875,-12.725830078125,-20.5078125,13.85498046875,13.397865155677655,55.01822344322344,-61.818189102564105
271,0.2470703125,0.87744140625,0.125732421875,9.765625,40.8935546875,0.3662109375,12.504674145299145,54.12796092796093,-61.64599358974359
272,0.136962890625,0.955322265625,0.108154296875,31.951904296875,54.3212890625,-3.326416015625,12.861950549450547,54.48406593406593,-64.74551282051281
273,0.086181640625,1.002685546875,0.13671875,29.78515625,14.7705078125,-12.0849609375,13.040588751526252,52.8815934065934,-67.67283653846154
274,0.068603515625,1.04296875,0.19482421875,-15.655517578125,-62.92724609375,-7.87353515625,13.576503357753358,55.55238095238095,-66.46746794871795
275,0.373291015625,1.15283203125,-0.011474609375,-26.519775390625,-15.350341796875,15.44189453125,12.683312347374846,58.22316849816849,-63.88453525641026
276,-0.0595703125,1.024169921875,0.148681640625,-2.716064453125,17.9443359375,15.899658203125,13.75514155982906,55.73043345543345,-64.5733173076923
277,0.18408203125,0.913330078125,0.0224609375,-14.068603515625,-59.9365234375,-14.434814453125,13.040588751526252,56.798748473748475,-63.1957532051282
278,0.250244140625,1.05810546875,-0.0361328125,13.397216796875,57.373046875,-2.777099609375,13.040588751526252,57.86706349206349,-62.851362179487175
279,-0.00927734375,0.970947265625,0.026123046875,22.308349609375,70.37353515625,1.708984375,14.112417963980462,56.08653846153845,-64.91770833333334
280,-0.051025390625,1.06396484375,0.05078125,9.1552734375,-4.5166015625,-4.730224609375,14.648332570207568,54.48406593406593,-68.18942307692308
281,0.127685546875,0.99951171875,-0.000732421875,2.86865234375,-13.73291015625,-13.0615234375,14.469694368131867,55.01822344322344,-66.29527243589743
282,0.09619140625,1.029052734375,-0.02587890625,-2.349853515625,1.46484375,-9.552001953125,14.826970772283273,56.798748473748475,-69.05040064102565
283,0.150146484375,1.021240234375,-0.026611328125,-12.054443359375,-7.171630859375,-6.683349609375,14.826970772283273,58.22316849816849,-66.98405448717949
284,0.111572265625,1.019775390625,-0.011474609375,-18.6767578125,9.82666015625,-7.38525390625,14.112417963980462,58.22316849816849,-65.9508814102564
285,0.171875,0.989501953125,-0.03173828125,-26.30615234375,10.19287109375,-9.46044921875,14.469694368131867,58.93537851037851,-64.91770833333334
286,0.115478515625,1.0595703125,0.055419921875,-8.636474609375,30.731201171875,11.505126953125,13.397865155677655,57.51095848595848,-65.60649038461538
287,0.1865234375,0.89111328125,0.10009765625,28.228759765625,37.384033203125,16.9677734375,12.861950549450547,54.84017094017094,-64.4011217948718
288,0.0166015625,1.0791015625,0.19287109375,49.49951171875,121.246337890625,44.403076171875,12.14739774114774,50.21080586080586,-68.18942307692308
289,0.067138671875,1.046630859375,0.16357421875,27.4658203125,101.165771484375,11.627197265625,16.25607638888889,41.1301282051282,-70.77235576923077
290,0.0341796875,0.9521484375,0.148681640625,-1.922607421875,61.981201171875,2.960205078125,15.184247176434676,37.56907814407814,-70.08357371794871
291,0.11328125,0.901123046875,0.072265625,12.14599609375,35.919189453125,-5.950927734375,16.077438186813186,35.61050061050061,-69.9113782051282
292,0.018310546875,0.978271484375,0.151123046875,9.8876953125,-6.65283203125,-18.06640625,16.43471459096459,33.47387057387057,-71.97772435897436
293,0.000244140625,1.0654296875,0.118896484375,4.94384765625,-31.585693359375,-28.350830078125,18.757011217948715,38.993498168498164,-71.80552884615385
294,0.117431640625,1.07861328125,0.06982421875,-40.22216796875,-116.455078125,-2.50244140625,16.43471459096459,43.444810744810745,-71.28894230769231
295,0.085205078125,0.95068359375,0.1279296875,8.11767578125,-12.14599609375,-5.859375,15.54152358058608,44.33507326007325,-68.70600961538462
296,0.216064453125,0.99951171875,-0.02490234375,-16.082763671875,-6.683349609375,20.721435546875,15.54152358058608,45.75949328449328,-69.7391826923077
297,0.086669921875,1.001220703125,0.069580078125,23.040771484375,30.792236328125,26.885986328125,14.469694368131867,43.26675824175824,-68.70600961538462
298,0.1591796875,0.929443359375,0.018310546875,15.045166015625,-1.312255859375,15.716552734375,15.005608974358974,43.80091575091575,-71.28894230769231
299,0.252685546875,0.966064453125,0.01220703125,21.820068359375,5.859375,-19.287109375,17.149267399267398,41.66428571428571,-70.94455128205128
300,0.224853515625,1.07177734375,0.05078125,4.791259765625,-40.252685546875,-14.58740234375,19.292925824175825,45.58144078144078,-72.32211538461539
301,0.239013671875,1.236328125,0.07470703125,-41.015625,-56.09130859375,-1.190185546875,16.25607638888889,48.25222832722832,-70.77235576923077
302,0.05419921875,0.865478515625,0.1083984375,-45.745849609375,-44.921875,-20.294189453125,15.005608974358974,52.3474358974359,-66.12307692307692
303,0.09814453125,0.962646484375,0.069580078125,-33.3251953125,5.340576171875,28.6865234375,11.968759539072039,50.03275335775336,-64.5733173076923
304,-0.011474609375,0.8525390625,0.161376953125,3.35693359375,-12.75634765625,-10.68115234375,11.968759539072039,49.67664835164835,-63.88453525641026
305,0.288818359375,0.87548828125,0.1162109375,14.862060546875,-52.1240234375,-47.607421875,13.576503357753358,51.99133089133089,-63.71233974358974
306,0.279541015625,0.95556640625,0.12109375,33.203125,14.007568359375,-39.00146484375,16.25607638888889,57.86706349206349,-64.5733173076923
307,0.083251953125,1.18408203125,0.24609375,13.153076171875,-28.13720703125,21.820068359375,16.613352793040292,58.93537851037851,-64.22892628205128
308,-0.023193359375,1.21435546875,0.149169921875,-7.781982421875,-21.42333984375,16.571044921875,15.54152358058608,57.51095848595848,-65.26209935897435
309,0.418212890625,1.065185546875,-0.058837890625,-22.216796875,-4.241943359375,18.157958984375,14.291056166056165,58.401221001220996,-63.02355769230769
310,0.23486328125,0.9384765625,-0.072265625,23.13232421875,166.290283203125,55.084228515625,14.291056166056165,55.908485958485954,-64.74551282051281
311,-0.119384765625,0.8349609375,0.067138671875,3.72314453125,110.3515625,32.958984375,14.826970772283273,45.75949328449328,-66.29527243589743
312,0.068115234375,1.05712890625,0.091796875,-6.439208984375,-51.57470703125,4.33349609375,15.362885378510379,40.23986568986569,-67.15625
313,0.2666015625,1.12451171875,0.126953125,11.688232421875,-27.984619140625,-10.7421875,13.040588751526252,42.910653235653236,-67.67283653846154
314,0.126220703125,0.982666015625,0.13623046875,12.908935546875,-51.300048828125,-20.355224609375,13.75514155982906,45.75949328449328,-64.91770833333334
315,-0.00634765625,1.0576171875,0.130126953125,-17.059326171875,6.40869140625,-6.744384765625,13.75514155982906,48.60833333333333,-65.60649038461538
316,0.080322265625,0.826171875,0.126953125,-26.4892578125,-53.16162109375,-46.295166015625,13.397865155677655,50.03275335775336,-64.91770833333334
317,0.38427734375,0.826171875,0.060302734375,-3.570556640625,-21.331787109375,-36.19384765625,11.968759539072039,54.66211843711844,-64.22892628205128
318,0.14990234375,0.9892578125,0.170166015625,23.712158203125,25.360107421875,-6.04248046875,12.683312347374846,57.15485347985348,-63.54014423076922
319,0.018798828125,1.1572265625,0.22412109375,19.927978515625,-20.172119140625,21.331787109375,14.291056166056165,55.55238095238095,-64.74551282051281
320,0.080078125,1.035400390625,0.111328125,5.340576171875,-23.468017578125,31.280517578125,13.576503357753358,56.26459096459096,-65.77868589743589
321,0.459716796875,1.152587890625,-0.052001953125,-10.009765625,27.2216796875,32.77587890625,12.14739774114774,55.908485958485954,-65.43429487179486
322,0.15869140625,0.845703125,-0.015625,18.768310546875,152.64892578125,38.177490234375,12.14739774114774,47.718070818070814,-66.12307692307692
323,0.014892578125,0.835693359375,0.041259765625,-2.86865234375,58.53271484375,29.754638671875,12.504674145299145,41.30818070818071,-67.50064102564102
324,0.252685546875,1.05859375,0.0703125,5.7373046875,-63.29345703125,-7.415771484375,11.790121336996338,37.03492063492063,-67.15625
325,0.4208984375,1.075927734375,0.100341796875,14.007568359375,-12.176513671875,-22.491455078125,13.219226953601954,43.444810744810745,-67.84503205128205
326,0.085693359375,1.151123046875,0.15283203125,0.48828125,-30.517578125,-31.3720703125,13.219226953601954,45.22533577533577,-67.50064102564102
327,0.05078125,1.032470703125,0.13671875,-26.092529296875,5.218505859375,27.618408203125,11.790121336996338,45.58144078144078,-66.12307692307692
328,0.017333984375,0.7373046875,0.143310546875,-26.763916015625,-25.0244140625,-25.20751953125,9.46782471001221,46.47170329670329,-67.32844551282051
329,0.4111328125,0.902587890625,0.064453125,-22.8271484375,-73.028564453125,-38.02490234375,9.825101114163614,50.38885836385836,-63.54014423076922
330,0.2705078125,0.920654296875,0.151123046875,24.90234375,44.43359375,-27.679443359375,9.110548305860805,54.30601343101343,-62.851362179487175
331,0.08984375,1.273681640625,0.197998046875,27.9541015625,-27.587890625,0.335693359375,11.075568528693527,54.48406593406593,-66.12307692307692
332,-0.043701171875,0.9873046875,0.170654296875,1.190185546875,-20.5078125,-15.19775390625,11.254206730769232,55.73043345543345,-66.29527243589743
333,0.285400390625,1.08984375,0.014892578125,-4.058837890625,45.440673828125,2.227783203125,10.36101572039072,55.55238095238095,-65.77868589743589
334,-0.003173828125,0.916015625,0.033203125,6.65283203125,121.2158203125,49.896240234375,11.968759539072039,48.25222832722832,-68.70600961538462
335,0.04541015625,0.92236328125,0.05029296875,-3.662109375,19.95849609375,44.12841796875,11.968759539072039,41.486233211233206,-69.05040064102565
336,0.223388671875,1.029541015625,0.025634765625,6.34765625,-23.13232421875,7.38525390625,11.611483134920634,40.417918192918194,-67.32844551282051
337,0.211669921875,1.36767578125,0.1611328125,11.016845703125,-33.75244140625,1.40380859375,12.861950549450547,39.883760683760684,-68.87820512820512
338,0.140625,0.90185546875,0.105224609375,-8.6669921875,-31.402587890625,-2.471923828125,11.075568528693527,43.80091575091575,-70.25576923076923
339,-0.006591796875,0.991455078125,0.118408203125,-18.5546875,-8.087158203125,-12.451171875,11.611483134920634,42.55454822954823,-68.70600961538462
340,0.15625,0.80810546875,0.128662109375,-30.792236328125,-80.718994140625,-25.482177734375,10.36101572039072,45.93754578754579,-68.18942307692308
341,0.4501953125,0.944091796875,0.090576171875,5.340576171875,0.091552734375,-29.266357421875,10.182377518315018,53.23769841269841,-64.91770833333334
342,0.1796875,0.947265625,0.082275390625,18.768310546875,25.69580078125,-7.01904296875,11.611483134920634,52.169383394383395,-67.32844551282051
343,0.261962890625,1.3125,0.086669921875,-4.39453125,-51.33056640625,2.166748046875,11.790121336996338,55.908485958485954,-67.50064102564102
344,0.20849609375,0.954345703125,0.020263671875,-10.284423828125,53.22265625,26.4892578125,13.933779761904761,56.26459096459096,-66.81185897435897
345,0.231689453125,1.0380859375,0.009521484375,17.364501953125,123.59619140625,42.510986328125,12.683312347374846,47.540018315018315,-68.70600961538462
346,-0.12890625,0.79345703125,0.074462890625,1.708984375,105.04150390625,60.943603515625,13.933779761904761,37.03492063492063,-69.22259615384615
347,0.11474609375,0.962646484375,0.14404296875,-6.011962890625,-67.81005859375,24.261474609375,13.576503357753358,30.981135531135532,-68.18942307692308
348,0.572998046875,0.96435546875,0.002197265625,1.89208984375,-47.42431640625,-3.96728515625,13.933779761904761,36.32271062271062,-70.25576923076923
349,0.24072265625,1.18505859375,0.21044921875,10.101318359375,36.529541015625,-22.369384765625,15.184247176434676,35.788553113553114,-69.39479166666666
350,0.05029296875,0.96240234375,0.044921875,-26.458740234375,-61.1572265625,-31.158447265625,13.576503357753358,41.30818070818071,-70.94455128205128
351,0.18798828125,1.050048828125,0.168212890625,-39.73388671875,-66.009521484375,-46.051025390625,11.611483134920634,46.82780830280831,-66.63966346153846
352,0.32373046875,0.75244140625,0.0205078125,-26.336669921875,-4.302978515625,-34.7900390625,10.36101572039072,51.99133089133089,-66.46746794871795
353,0.31494140625,0.95751953125,0.0732421875,18.37158203125,41.839599609375,-18.341064453125,11.254206730769232,53.94990842490842,-65.60649038461538
354,0.030029296875,1.000732421875,0.100341796875,26.214599609375,67.413330078125,-1.64794921875,13.397865155677655,52.5254884004884,-67.67283653846154
355,0.15673828125,1.140625,0.141845703125,8.026123046875,-45.59326171875,13.36669921875,13.219226953601954,51.99133089133089,-68.53381410256411
356,0.2607421875,1.01416015625,0.0078125,24.10888671875,77.239990234375,42.510986328125,12.861950549450547,49.14249084249084,-68.53381410256411
357,0.347900390625,1.05859375,-0.071533203125,6.591796875,142.852783203125,41.748046875,12.683312347374846,42.910653235653236,-67.32844551282051
358,-0.05322265625,0.841064453125,-0.029296875,3.570556640625,182.92236328125,52.337646484375,15.184247176434676,29.378663003663,-66.98405448717949
359,0.06201171875,0.982177734375,0.0595703125,-11.04736328125,20.01953125,33.721923828125,16.077438186813186,21.01019536019536,-62.33477564102564
360,0.246826171875,1.01025390625,0.085693359375,10.833740234375,-52.978515625,10.25390625,16.970629197191695,21.188247863247863,-62.16258012820513
361,0.3662109375,1.16796875,0.20654296875,27.191162109375,-8.697509765625,-24.71923828125,18.399734813797313,23.324877899877897,-63.88453525641026
362,0.158203125,0.944580078125,0.070068359375,18.341064453125,38.9404296875,12.298583984375,16.613352793040292,25.10540293040293,-65.9508814102564
363,0.104248046875,0.973876953125,0.151123046875,-18.402099609375,-16.05224609375,-21.66748046875,18.04245840964591,22.968772893772893,-64.5733173076923
364,0.4052734375,0.87255859375,0.034912109375,-36.19384765625,-33.538818359375,-27.2216796875,16.791990995115995,26.707875457875456,-64.4011217948718
365,0.3369140625,0.873046875,0.065185546875,-0.30517578125,79.345703125,-24.505615234375,15.184247176434676,27.954242979242977,-62.50697115384615
366,0.06396484375,0.96044921875,0.150146484375,15.380859375,62.530517578125,-3.265380859375,15.005608974358974,26.351770451770452,-61.64599358974359
367,0.187744140625,1.190673828125,0.193115234375,13.397216796875,-26.42822265625,6.4697265625,13.040588751526252,25.461507936507935,-61.47379807692307
368,0.345703125,1.04052734375,0.02099609375,18.646240234375,72.906494140625,22.430419921875,15.54152358058608,24.393192918192916,-62.50697115384615
369,0.208251953125,1.1044921875,-0.093505859375,13.275146484375,198.883056640625,58.7158203125,17.3279056013431,17.627197802197802,-58.02988782051282
370,-0.1630859375,0.95751953125,-0.00048828125,-2.44140625,179.290771484375,68.05419921875,22.151137057387054,6.765995115995116,-46.83717948717948
371,-0.02490234375,0.944091796875,0.132568359375,-19.10400390625,-9.063720703125,49.041748046875,25.545262896825395,0.5341575091575091,-38.39959935897436
372,0.321044921875,0.967041015625,0.07177734375,17.333984375,-39.794921875,11.077880859375,29.296665140415136,-1.0683150183150183,-42.36009615384615
373,0.233154296875,1.303466796875,0.16455078125,63.8427734375,32.989501953125,-15.899658203125,29.47530334249084,-1.6024725274725273,-41.84350961538461
374,0.30126953125,0.931396484375,-0.024169921875,-14.70947265625,-92.987060546875,-18.73779296875,26.259815705128204,3.739102564102564,-45.287419871794874
375,0.090576171875,1.123779296875,0.159912109375,-10.1318359375,49.25537109375,-17.7001953125,24.29479548229548,3.2049450549450547,-44.77083333333333
376,0.242431640625,0.8212890625,0.063720703125,-48.675537109375,-65.155029296875,-30.82275390625,22.687051663614163,5.875732600732601,-47.009375
377,0.431884765625,0.889404296875,0.030029296875,-0.640869140625,65.460205078125,-15.960693359375,20.543393238705736,7.3001526251526245,-46.320592948717945
378,0.0341796875,0.962158203125,0.178466796875,23.895263671875,90.6982421875,6.622314453125,21.79386065323565,6.765995115995116,-40.98253205128205
379,0.16064453125,0.99755859375,0.21923828125,22.308349609375,-13.580322265625,18.341064453125,21.25794604700855,4.451312576312576,-38.055208333333326
380,0.276123046875,1.11865234375,0.052978515625,37.29248046875,96.13037109375,62.896728515625,25.366624694749692,2.4927350427350428,-38.916185897435895
381,0.286865234375,1.069091796875,0.0361328125,-6.53076171875,104.034423828125,40.740966796875,28.760750534188034,-0.17805250305250306,-33.92251602564102
382,0.119873046875,0.934326171875,-0.102294921875,12.542724609375,180.572509765625,67.138671875,31.797599969474966,-1.4244200244200245,-25.484935897435896
383,-0.086669921875,0.9697265625,0.10302734375,18.12744140625,97.015380859375,64.14794921875,35.191725808913304,1.9585775335775335,-15.32540064102564
384,0.14453125,0.90869140625,0.107421875,17.4560546875,-79.010009765625,9.27734375,35.54900221306471,1.2463675213675214,-13.603445512820512
385,0.46337890625,0.991943359375,0.075927734375,30.8837890625,-30.8837890625,-14.0380859375,36.44219322344322,1.0683150183150183,-19.630288461538463
386,0.368408203125,1.25830078125,0.1845703125,42.999267578125,30.426025390625,-33.5693359375,32.690790979853475,0.8902625152625152,-17.73613782051282
387,0.288818359375,0.8837890625,-0.07275390625,-17.39501953125,-25.2685546875,-35.70556640625,26.97436851343101,3.739102564102564,-17.04735576923077
388,0.032470703125,1.038818359375,0.155029296875,-43.243408203125,29.35791015625,36.56005859375,29.832579746642246,2.3146825396825395,-18.080528846153847
389,0.31396484375,0.915771484375,0.069580078125,-31.219482421875,-28.9306640625,-6.195068359375,33.04806738400488,-0.5341575091575091,-18.080528846153847
390,0.443115234375,0.860107421875,0.136474609375,-7.080078125,25.787353515625,3.0517578125,32.86942918192918,0.3561050061050061,-18.597115384615385
391,0.401123046875,0.85693359375,0.08056640625,34.088134765625,117.950439453125,10.162353515625,32.86942918192918,3.561050061050061,-15.841987179487178
392,0.164794921875,0.965576171875,0.237060546875,35.491943359375,131.622314453125,29.35791015625,32.15487637362637,10.327045177045177,-10.33173076923077
393,0.2314453125,1.078857421875,0.16943359375,40.130615234375,92.864990234375,36.56005859375,30.90440895909646,17.271092796092795,-6.715624999999999
394,0.1396484375,1.11376953125,-0.007080078125,33.966064453125,121.39892578125,38.9404296875,28.046197725885225,24.393192918192916,-7.748798076923077
395,0.116943359375,0.83935546875,0.066650390625,2.38037109375,31.73828125,14.862060546875,28.224835927960925,27.42008547008547,-9.987339743589743
396,0.393310546875,0.940673828125,-0.113037109375,6.500244140625,39.97802734375,-6.683349609375,27.688921321733822,30.090873015873015,-8.781971153846154
397,0.25732421875,1.024169921875,-0.11376953125,34.393310546875,128.47900390625,2.197265625,26.259815705128204,35.788553113553114,-9.815144230769231
398,-0.034423828125,1.083251953125,0.0732421875,32.012939453125,73.91357421875,1.52587890625,25.00934829059829,43.08870573870574,-15.841987179487178
399,0.204345703125,1.013427734375,-0.014892578125,9.185791015625,22.247314453125,-1.983642578125,22.508413461538463,47.718070818070814,-18.597115384615385
400,0.19384765625,1.024169921875,-0.062744140625,16.571044921875,94.329833984375,34.637451171875,21.61522245115995,51.10106837606837,-21.180048076923075
401,0.133544921875,1.00341796875,-0.030517578125,1.190185546875,62.286376953125,36.712646484375,20.543393238705736,54.30601343101343,-23.935176282051284
402,0.19580078125,0.967529296875,-0.035400390625,-9.46044921875,41.839599609375,21.30126953125,19.828840430402927,51.10106837606837,-26.001522435897435
403,0.228271484375,0.98974609375,0.234619140625,5.645751953125,-8.636474609375,-2.01416015625,21.436584249084248,52.3474358974359,-26.17371794871795
404,0.595458984375,1.002197265625,0.119873046875,58.013916015625,78.094482421875,-0.79345703125,17.506543803418804,53.77185592185592,-26.17371794871795
405,0.089599609375,0.911865234375,0.287353515625,39.4287109375,118.34716796875,-2.9296875,16.25607638888889,61.428113553113555,-35.644471153846155
406,0.43359375,0.94677734375,0.078125,-2.716064453125,90.972900390625,-4.638671875,15.54152358058608,64.27695360195361,-40.81033653846154
407,0.07421875,0.95068359375,0.126220703125,10.19287109375,118.2861328125,30.975341796875,16.613352793040292,64.98916361416362,-47.69815705128205
408,0.10009765625,0.92431640625,0.200927734375,-2.288818359375,-1.40380859375,-8.270263671875,14.648332570207568,64.0989010989011,-51.65865384615384
409,0.295654296875,0.961669921875,0.10546875,7.26318359375,8.85009765625,-16.998291015625,15.720161782661782,64.0989010989011,-49.592307692307685
410,0.277587890625,1.2861328125,0.0927734375,30.975341796875,15.533447265625,29.23583984375,17.3279056013431,65.70137362637362,-52.51963141025641
411,0.00146484375,0.840576171875,0.179443359375,20.1416015625,28.594970703125,8.30078125,14.826970772283273,64.6330586080586,-55.27475961538462
412,0.433349609375,1.104248046875,-0.06103515625,5.79833984375,41.290283203125,-1.46484375,15.005608974358974,63.74279609279609,-55.1025641025641
413,0.12451171875,0.874267578125,-0.000732421875,27.52685546875,122.833251953125,40.679931640625,15.362885378510379,61.60616605616606,-58.20208333333333
414,-0.02490234375,1.022216796875,0.110595703125,-3.5400390625,5.523681640625,29.60205078125,13.75514155982906,55.374328449328445,-63.1957532051282
415,0.29052734375,0.990234375,0.0517578125,-14.617919921875,-72.3876953125,-15.838623046875,11.075568528693527,59.11343101343101,-61.64599358974359
416,0.20166015625,1.12841796875,0.0556640625,-6.927490234375,-23.590087890625,-12.5732421875,12.326035943223442,60.71590354090354,-56.65232371794871
417,0.171875,0.904052734375,0.009521484375,-40.618896484375,-120.513916015625,-39.0625,12.683312347374846,61.072008547008544,-52.51963141025641
418,0.112060546875,1.103759765625,0.157958984375,-50.018310546875,-69.183349609375,-24.566650390625,13.576503357753358,61.25006105006105,-45.80400641025641
419,0.172607421875,0.712890625,0.05029296875,-34.332275390625,-84.442138671875,-58.380126953125,14.826970772283273,60.003693528693525,-40.46594551282051
420,0.557861328125,0.9130859375,0.05419921875,-17.547607421875,-80.322265625,-56.732177734375,20.364755036630036,61.25006105006105,-33.405929487179485
421,0.24755859375,0.935546875,0.14501953125,34.3017578125,60.089111328125,-31.67724609375,21.436584249084248,64.4550061050061,-33.405929487179485
422,0.0966796875,1.316162109375,0.136962890625,9.46044921875,-40.985107421875,-1.708984375,21.61522245115995,66.76968864468864,-34.266907051282054
423,0.284423828125,0.918701171875,-0.00390625,10.7421875,64.8193359375,44.158935546875,21.25794604700855,66.76968864468864,-34.61129807692308
424,0.1201171875,1.122802734375,-0.005126953125,20.44677734375,151.2451171875,93.75,16.077438186813186,63.030586080586076,-40.98253205128205
425,-0.10498046875,0.86962890625,0.129638671875,-7.6904296875,32.89794921875,59.417724609375,11.254206730769232,58.93537851037851,-46.664983974358975
426,0.2548828125,0.939697265625,0.0888671875,-15.31982421875,-59.63134765625,2.166748046875,9.825101114163614,55.374328449328445,-46.320592948717945
427,0.408447265625,1.068359375,0.107177734375,1.800537109375,-14.7705078125,-25.238037109375,11.968759539072039,54.66211843711844,-41.84350961538461
428,0.13134765625,1.144775390625,0.192138671875,10.25390625,-38.421630859375,-59.814453125,13.040588751526252,57.86706349206349,-42.87668269230769
429,-0.0673828125,1.058837890625,0.05224609375,-45.8984375,-105.65185546875,-11.16943359375,14.648332570207568,58.757326007326,-36.84983974358974
430,0.013671875,0.994384765625,0.05126953125,-76.72119140625,-138.641357421875,-43.304443359375,16.791990995115995,56.62069597069597,-31.683974358974357
431,0.3369140625,0.775146484375,-0.037109375,-66.741943359375,-156.097412109375,-63.446044921875,22.151137057387054,49.49859584859585,-18.25272435897436
432,0.5693359375,0.858642578125,0.142822265625,-7.049560546875,-56.060791015625,-48.370361328125,25.9025393009768,43.62286324786324,-11.881490384615383
433,0.241943359375,0.99267578125,0.2216796875,34.942626953125,44.952392578125,-19.378662109375,27.51028311965812,44.513125763125764,-12.053685897435898
434,0.02001953125,0.947998046875,0.266357421875,49.25537109375,15.838623046875,2.899169921875,24.116157280219777,47.540018315018315,-14.63661858974359
435,0.3671875,1.153564453125,0.037109375,29.78515625,98.114013671875,52.42919921875,20.72203144078144,47.718070818070814,-16.53076923076923
436,0.029052734375,0.906005859375,0.06982421875,12.14599609375,109.7412109375,80.963134765625,18.399734813797313,53.23769841269841,-25.657131410256408
437,0.1591796875,0.916015625,0.071044921875,-11.749267578125,-40.771484375,63.5986328125,16.613352793040292,48.60833333333333,-23.590785256410253
438,0.4609375,0.880615234375,0.025390625,-2.532958984375,-14.129638671875,-11.474609375,15.005608974358974,42.73260073260073,-23.07419871794872
439,0.31298828125,1.20166015625,0.14599609375,2.44140625,2.44140625,-25.81787109375,17.3279056013431,44.33507326007325,-22.557612179487176
440,0.116455078125,1.034423828125,0.0927734375,-2.716064453125,-65.948486328125,-32.379150390625,16.613352793040292,46.115598290598285,-21.180048076923075
441,-0.058349609375,1.076171875,0.19970703125,-52.276611328125,-68.695068359375,-39.276123046875,19.11428762210012,42.910653235653236,-18.42491987179487
442,0.2119140625,0.77880859375,0.0048828125,-57.952880859375,-106.3232421875,-44.37255859375,22.32977525946276,37.92518315018315,-13.947836538461537
443,0.530029296875,0.897216796875,0.054443359375,-30.426025390625,-65.826416015625,-54.901123046875,26.617092109279607,32.93971306471306,-8.437580128205127
444,0.32421875,0.896240234375,0.1240234375,16.510009765625,24.0478515625,-15.716552734375,27.331644917582416,34.00802808302808,-9.12636217948718
445,0.09765625,1.296630859375,0.223388671875,18.1884765625,-28.74755859375,-15.655517578125,26.259815705128204,35.0763431013431,-10.503926282051282
446,0.359375,0.921630859375,0.029052734375,17.63916015625,36.041259765625,18.157958984375,24.652071886446883,35.254395604395604,-9.298557692307693
447,0.185546875,1.09326171875,-0.015869140625,29.23583984375,200.775146484375,73.455810546875,23.044328067765566,39.34960317460317,-11.881490384615383
448,-0.115478515625,0.900146484375,0.121337890625,-19.4091796875,90.484619140625,80.13916015625,20.364755036630036,46.649755799755795,-20.319070512820513
449,0.172607421875,0.93310546875,0.107666015625,-11.688232421875,-28.106689453125,42.938232421875,19.11428762210012,43.62286324786324,-19.11370192307692
450,0.371826171875,1.100830078125,0.16650390625,15.411376953125,-27.40478515625,-0.030517578125,19.471564026251524,40.06181318681319,-16.702964743589742
451,0.244140625,1.0595703125,0.244384765625,24.59716796875,-28.01513671875,-62.19482421875,17.3279056013431,41.84233821733821,-17.73613782051282
452,0.155517578125,1.04443359375,0.075927734375,-3.11279296875,-27.313232421875,11.16943359375,17.685182005494504,43.26675824175824,-17.73613782051282
453,-0.021728515625,1.0732421875,0.170166015625,-63.323974609375,-123.016357421875,-46.112060546875,18.578373015873016,39.52765567765567,-16.186378205128204
454,0.3564453125,0.756591796875,-0.041748046875,-70.343017578125,-142.059326171875,-57.708740234375,23.937519078144078,33.47387057387057,-11.02051282051282
455,0.4775390625,0.8720703125,0.086181640625,-13.73291015625,-43.304443359375,-43.51806640625,25.545262896825395,27.242032967032966,-6.371233974358974
456,0.318115234375,1.0224609375,0.16943359375,15.80810546875,-22.674560546875,-36.041259765625,26.97436851343101,27.954242979242977,-7.4044070512820515
457,0.26025390625,1.12841796875,0.1279296875,42.1142578125,6.16455078125,6.2255859375,24.29479548229548,27.42008547008547,-8.265384615384615
458,0.164306640625,1.057373046875,0.041748046875,12.939453125,57.2509765625,58.59375,22.687051663614163,27.598137973137973,-10.503926282051282
459,0.274169921875,0.9912109375,0.0185546875,26.06201171875,112.823486328125,50.96435546875,21.79386065323565,30.268925518925517,-11.02051282051282
460,-0.007568359375,0.85498046875,0.073486328125,4.8828125,79.010009765625,65.765380859375,18.399734813797313,32.93971306471306,-14.63661858974359
461,0.210693359375,0.935791015625,0.13037109375,-9.8876953125,-46.81396484375,11.04736328125,21.25794604700855,30.44697802197802,-13.259054487179487
462,0.524169921875,1.0947265625,0.03076171875,-4.364013671875,-38.848876953125,-40.0390625,20.364755036630036,27.776190476190475,-12.398076923076921
463,0.052734375,1.085693359375,0.217529296875,7.904052734375,-40.34423828125,-74.981689453125,19.471564026251524,29.73476800976801,-11.192708333333332
464,0.052001953125,1.02294921875,0.003173828125,-54.13818359375,-137.786865234375,-1.953125,20.543393238705736,27.242032967032966,-11.192708333333332
465,0.197509765625,0.98095703125,0.04541015625,-52.55126953125,-66.192626953125,-15.9912109375,25.366624694749692,19.229670329670327,-8.60977564102564
466,0.204833984375,0.754150390625,0.08935546875,-39.36767578125,-85.418701171875,-31.524658203125,28.58211233211233,14.956410256410257,-9.298557692307693
467,0.550048828125,0.876708984375,0.144775390625,-11.53564453125,-88.37890625,-48.64501953125,28.58211233211233,8.902625152625152,-12.398076923076921
468,0.39013671875,1.0908203125,0.095703125,24.0478515625,51.055908203125,-8.11767578125,25.366624694749692,9.258730158730158,-12.398076923076921
469,0.2041015625,1.17333984375,0.1220703125,9.185791015625,-25.32958984375,-2.38037109375,22.508413461538463,13.175885225885226,-13.431249999999999
470,0.3515625,1.094482421875,0.0,25.970458984375,96.923828125,58.197021484375,22.687051663614163,11.929517704517703,-12.91466346153846
471,0.064453125,0.836181640625,0.043212890625,31.55517578125,149.4140625,67.230224609375,22.865689865689866,17.449145299145297,-11.70929487179487
472,0.119873046875,0.917236328125,0.09814453125,-4.2724609375,13.73291015625,68.511962890625,22.865689865689866,19.229670329670327,-10.676121794871793
473,0.37060546875,0.93310546875,0.065673828125,1.3427734375,-39.36767578125,10.7421875,23.580242673992675,16.736935286935285,-10.33173076923077
474,0.405029296875,1.15283203125,0.07568359375,10.68115234375,15.31982421875,-27.64892578125,23.22296626984127,13.888095238095238,-10.33173076923077
475,0.096923828125,1.081787109375,0.143798828125,-11.1083984375,-106.597900390625,-63.262939453125,20.72203144078144,17.093040293040293,-11.364903846153847
476,0.0546875,1.13330078125,0.20458984375,-60.943603515625,-78.704833984375,-16.265869140625,22.32977525946276,12.997832722832722,-10.848317307692309
477,0.2109375,0.785888671875,0.004638671875,-74.52392578125,-89.324951171875,-40.008544921875,25.00934829059829,8.19041514041514,-13.086858974358975
478,0.4423828125,0.8544921875,0.059814453125,-46.356201171875,-94.05517578125,-52.764892578125,26.081177503052505,4.629365079365079,-14.12003205128205
479,0.559326171875,0.82080078125,0.096435546875,4.608154296875,-29.632568359375,-38.39111328125,24.473433684371184,2.3146825396825395,-17.73613782051282
480,0.049072265625,1.2314453125,0.31640625,36.9873046875,47.271728515625,-30.059814453125,21.972498855311354,5.875732600732601,-18.080528846153847
481,0.39404296875,0.987548828125,0.007080078125,31.06689453125,36.07177734375,9.857177734375,18.22109661172161,7.834310134310134,-18.94150641025641
482,0.126708984375,1.14892578125,-0.053466796875,47.210693359375,252.410888671875,87.2802734375,19.11428762210012,11.929517704517703,-14.292227564102564
483,-0.13916015625,0.86083984375,0.108642578125,-17.486572265625,92.010498046875,69.671630859375,22.151137057387054,15.668620268620268,-10.33173076923077
484,0.213134765625,0.892822265625,0.050048828125,-16.448974609375,-58.563232421875,45.928955078125,25.545262896825395,13.353937728937728,-8.437580128205127
485,0.388916015625,0.986572265625,0.09423828125,22.857666015625,-2.9296875,3.936767578125,26.617092109279607,7.656257631257631,-8.437580128205127
486,0.297119140625,1.171630859375,0.138916015625,24.2919921875,19.866943359375,-32.012939453125,25.9025393009768,9.436782661782662,-9.815144230769231
487,-0.075927734375,0.9892578125,0.02099609375,-4.974365234375,-74.676513671875,-45.867919921875,20.90066964285714,12.28562271062271,-12.570272435897436
488,0.1787109375,1.071533203125,0.000732421875,-63.079833984375,-160.21728515625,-41.1376953125,20.90066964285714,7.656257631257631,-12.91466346153846
489,0.392822265625,0.7919921875,-0.02001953125,-76.019287109375,-106.5673828125,-32.8369140625,23.40160447191697,2.6707875457875456,-19.802483974358974
490,0.4248046875,0.937255859375,0.133544921875,-31.341552734375,-41.290283203125,-48.126220703125,23.758880876068375,1.6024725274725273,-19.458092948717947
491,0.3544921875,0.943359375,0.131591796875,-1.373291015625,-1.28173828125,-35.7666015625,23.044328067765566,3.026892551892552,-23.935176282051284
492,0.22509765625,1.25390625,0.13232421875,44.097900390625,13.885498046875,-4.94384765625,20.72203144078144,6.053785103785104,-23.07419871794872
493,0.18505859375,0.978515625,0.085205078125,30.120849609375,67.93212890625,31.67724609375,19.650202228327228,6.409890109890109,-23.762980769230765
494,0.174072265625,1.11376953125,-0.08740234375,39.947509765625,204.315185546875,87.2802734375,23.044328067765566,7.3001526251526245,-20.146874999999998
495,-0.067138671875,0.89892578125,0.048583984375,-7.415771484375,94.879150390625,84.716796875,25.187986492673993,10.50509768009768,-12.22588141025641
496,0.149169921875,0.925537109375,0.0625,-14.2822265625,-58.074951171875,43.487548828125,29.832579746642246,8.012362637362637,-11.881490384615383
497,0.411865234375,1.01318359375,0.07080078125,-3.814697265625,-70.037841796875,-16.54052734375,30.725770757020758,2.4927350427350428,-16.186378205128204
498,0.378662109375,1.174560546875,0.081298828125,-5.31005859375,-23.529052734375,-58.807373046875,30.36849435286935,4.629365079365079,-15.497596153846153
499,0.083251953125,0.994873046875,-0.05810546875,-36.0107421875,-62.5,-28.411865234375,25.723901098901095,4.273260073260073,-17.90833333333333
500,0.07666015625,1.0634765625,0.09912109375,-70.037841796875,-117.645263671875,-42.41943359375,27.51028311965812,2.4927350427350428,-21.007852564102564
501,0.36865234375,0.87890625,-0.01904296875,-83.3740234375,-111.81640625,-46.5087890625,26.97436851343101,-0.5341575091575091,-25.657131410256408
502,0.52880859375,0.849365234375,0.031494140625,-18.157958984375,-31.951904296875,-56.793212890625,24.83071008852259,0.17805250305250306,-26.690304487179485
503,0.304931640625,0.9912109375,0.150146484375,32.04345703125,42.205810546875,-10.894775390625,23.937519078144078,2.848840048840049,-28.928846153846152
504,0.160400390625,1.075439453125,0.148681640625,45.318603515625,34.881591796875,2.25830078125,22.508413461538463,4.273260073260073,-29.96201923076923
505,0.383544921875,1.177001953125,-0.059326171875,34.1796875,164.642333984375,57.373046875,22.865689865689866,3.917155067155067,-26.17371794871795
506,-0.06298828125,0.945556640625,-0.0078125,-4.364013671875,195.068359375,66.925048828125,25.545262896825395,7.656257631257631,-18.42491987179487
507,0.00732421875,0.934326171875,0.017822265625,-37.567138671875,29.4189453125,73.822021484375,30.54713255494505,9.792887667887667,-12.91466346153846
508,0.16162109375,0.906005859375,0.098876953125,-4.57763671875,-51.727294921875,21.8505859375,34.4771730006105,8.012362637362637,-10.848317307692309
509,0.31982421875,1.052978515625,0.18896484375,21.78955078125,-40.496826171875,-35.7666015625,34.298534798534796,3.2049450549450547,-14.12003205128205
510,0.234130859375,0.972412109375,0.117431640625,49.86572265625,-12.542724609375,-91.73583984375,30.01121794871795,5.697680097680098,-15.841987179487178
511,0.0107421875,1.099853515625,0.171630859375,-4.058837890625,-31.646728515625,-0.213623046875,23.580242673992675,6.409890109890109,-14.808814102564103
512,0.146240234375,0.8515625,0.0322265625,-60.333251953125,-110.77880859375,-30.8837890625,25.723901098901095,4.9854700854700855,-19.285897435897436
513,0.454833984375,0.881103515625,0.027587890625,-46.81396484375,-52.6123046875,-13.3056640625,25.545262896825395,1.2463675213675214,-22.902003205128207
514,0.416748046875,0.841064453125,0.070068359375,-6.34765625,23.193359375,-15.472412109375,26.438453907203908,2.4927350427350428,-24.107371794871796
515,0.1513671875,1.086181640625,0.17236328125,44.708251953125,60.05859375,14.83154296875,26.79573031135531,3.917155067155067,-22.729807692307695
516,0.23828125,1.018798828125,0.135009765625,34.85107421875,20.843505859375,-2.0751953125,23.758880876068375,3.382997557997558,-22.557612179487176
517,0.303466796875,1.08154296875,-0.1259765625,33.477783203125,189.239501953125,38.848876953125,24.116157280219777,6.587942612942613,-18.42491987179487
518,-0.088623046875,0.893310546875,0.018798828125,-1.373291015625,151.763916015625,66.802978515625,26.617092109279607,15.84667277167277,-12.22588141025641
519,0.1181640625,0.980712890625,0.02294921875,-13.0615234375,5.43212890625,61.126708984375,29.296665140415136,15.668620268620268,-9.987339743589743
520,0.309326171875,0.901611328125,0.07568359375,4.82177734375,-51.26953125,7.2021484375,29.296665140415136,12.463675213675213,-11.02051282051282
521,0.477783203125,1.123291015625,0.101806640625,16.05224609375,1.739501953125,-36.19384765625,28.224835927960925,10.327045177045177,-10.676121794871793
522,0.242431640625,0.8740234375,0.10595703125,44.158935546875,19.256591796875,-64.056396484375,25.00934829059829,14.600305250305249,-11.364903846153847
523,-0.0126953125,1.086669921875,0.111572265625,-12.26806640625,19.683837890625,4.638671875,23.580242673992675,16.38083028083028,-11.02051282051282
524,0.16943359375,0.869384765625,0.09033203125,-31.3720703125,-53.741455078125,-34.66796875,22.508413461538463,16.736935286935285,-12.053685897435898
525,0.42724609375,0.9208984375,0.069580078125,-29.052734375,-28.99169921875,-18.096923828125,25.9025393009768,14.06614774114774,-12.91466346153846
526,0.304931640625,0.811279296875,0.082275390625,14.892578125,60.546875,-13.580322265625,25.187986492673993,15.134462759462759,-11.881490384615383
527,0.173828125,1.420166015625,0.207275390625,35.552978515625,34.0576171875,22.3388671875,25.00934829059829,18.873565323565323,-11.364903846153847
528,0.1787109375,1.02587890625,-0.0322265625,-1.89208984375,54.01611328125,5.43212890625,22.508413461538463,21.722405372405373,-10.33173076923077
529,0.283935546875,1.008056640625,-0.1083984375,-20.355224609375,124.420166015625,41.839599609375,24.29479548229548,24.927350427350426,-10.33173076923077
530,0.09033203125,0.94189453125,-0.02880859375,-2.3193359375,120.361328125,50.201416015625,25.723901098901095,32.40555555555555,-9.298557692307693
531,0.064697265625,0.957275390625,0.0283203125,2.899169921875,63.262939453125,33.447265625,26.259815705128204,36.85686813186813,-11.53709935897436
532,0.167724609375,0.99658203125,0.09716796875,20.965576171875,-10.19287109375,24.4140625,24.29479548229548,35.61050061050061,-12.742467948717948
533,0.314697265625,1.039306640625,0.1533203125,42.388916015625,-5.43212890625,-0.06103515625,21.61522245115995,34.720238095238095,-12.570272435897436
534,0.3505859375,0.989990234375,0.15576171875,70.9228515625,31.67724609375,-47.515869140625,18.757011217948715,36.14465811965812,-14.981009615384615
535,-0.003662109375,0.9833984375,0.080078125,0.244140625,61.70654296875,26.153564453125,16.613352793040292,43.97896825396825,-20.835657051282052
536,0.312744140625,0.958984375,0.0322265625,-2.74658203125,32.71484375,-10.7421875,16.613352793040292,43.26675824175824,-20.146874999999998
537,0.190185546875,0.931396484375,0.142822265625,-23.98681640625,7.171630859375,-3.23486328125,17.506543803418804,45.93754578754579,-22.385416666666664
538,0.36181640625,0.85302734375,0.06494140625,-6.866455078125,27.16064453125,-32.77587890625,18.757011217948715,47.18391330891331,-20.835657051282052
539,0.140625,1.017578125,0.11474609375,37.109375,98.663330078125,6.317138671875,18.399734813797313,52.5254884004884,-24.279567307692307
540,0.11865234375,1.250732421875,-0.0087890625,13.36669921875,74.554443359375,11.505126953125,15.720161782661782,55.19627594627595,-28.58445512820513
541,0.054931640625,0.8916015625,0.04443359375,-27.64892578125,19.1650390625,2.838134765625,14.291056166056165,56.62069597069597,-32.71714743589743
542,0.384033203125,0.918701171875,-0.113037109375,-29.1748046875,31.280517578125,24.7802734375,17.3279056013431,55.01822344322344,-30.13421474358974
543,0.275146484375,0.9306640625,-0.026611328125,11.016845703125,95.062255859375,16.357421875,16.970629197191695,55.73043345543345,-32.2005608974359
544,0.11767578125,0.973876953125,-0.015380859375,39.703369140625,108.09326171875,4.45556640625,16.43471459096459,58.757326007326,-37.538621794871794
545,0.00830078125,1.02685546875,0.07275390625,49.652099609375,62.347412109375,6.103515625,16.25607638888889,62.49642857142857,-45.97620192307692
546,0.187744140625,1.034912109375,-0.034912109375,50.537109375,38.6962890625,16.7236328125,16.25607638888889,62.14032356532356,-48.73133012820513
547,0.183349609375,1.0458984375,-0.046630859375,50.78125,80.596923828125,30.548095703125,13.576503357753358,61.60616605616606,-56.4801282051282
548,0.1669921875,1.0439453125,-0.090087890625,15.350341796875,48.9501953125,8.087158203125,13.219226953601954,59.825641025641026,-58.89086538461538
549,0.1748046875,1.01318359375,-0.1015625,-7.32421875,12.20703125,-3.631591796875,12.14739774114774,58.401221001220996,-61.99038461538461
550,0.197998046875,1.088623046875,-0.09423828125,-27.587890625,-22.308349609375,-8.209228515625,13.75514155982906,59.29148351648352,-58.37427884615384
551,0.0888671875,0.94970703125,0.0791015625,-47.821044921875,-74.64599609375,-37.078857421875,13.933779761904761,60.89395604395604,-57.16891025641026
552,0.306396484375,0.98046875,0.03271484375,-44.49462890625,-72.6318359375,-30.975341796875,16.43471459096459,60.89395604395604,-49.592307692307685
553,0.292724609375,0.949462890625,0.136474609375,13.763427734375,27.130126953125,5.7373046875,16.077438186813186,64.0989010989011,-46.49278846153846
554,0.1396484375,0.940185546875,0.139892578125,28.13720703125,100.76904296875,6.744384765625,14.291056166056165,63.030586080586076,-47.87035256410257
555,0.16748046875,0.976318359375,0.0966796875,28.6865234375,98.236083984375,23.956298828125,14.112417963980462,63.20863858363858,-54.93036858974359
556,0.067626953125,0.973876953125,0.06640625,19.4091796875,101.593017578125,22.94921875,14.648332570207568,60.89395604395604,-60.957211538461536
557,0.042724609375,0.983642578125,0.109375,8.636474609375,20.538330078125,13.336181640625,13.397865155677655,58.93537851037851,-63.1957532051282
558,0.107421875,1.059814453125,0.08740234375,3.021240234375,-23.37646484375,8.270263671875,12.326035943223442,57.15485347985348,-62.851362179487175
559,0.21875,1.096435546875,0.082763671875,1.89208984375,-45.440673828125,-1.983642578125,13.397865155677655,55.73043345543345,-61.129407051282044
560,0.15966796875,0.907958984375,0.029541015625,-10.650634765625,9.735107421875,-6.317138671875,13.397865155677655,59.29148351648352,-59.75184294871795
561,0.136474609375,1.097412109375,0.02734375,-16.11328125,12.298583984375,-4.150390625,12.326035943223442,58.22316849816849,-61.47379807692307
562,0.1416015625,0.938720703125,0.015380859375,-6.683349609375,-5.55419921875,-5.9814453125,13.219226953601954,58.04511599511599,-60.61282051282051
563,0.1328125,0.994384765625,0.02294921875,3.662109375,-12.939453125,-4.5166015625,14.112417963980462,58.5792735042735,-60.440625
564,0.177978515625,0.986083984375,-0.009521484375,-2.25830078125,-49.530029296875,-19.287109375,12.504674145299145,60.89395604395604,-59.23525641025641
565,0.279541015625,1.160888671875,0.012939453125,-4.5166015625,-45.684814453125,-4.2724609375,14.112417963980462,63.20863858363858,-56.65232371794871
566,0.268798828125,0.973388671875,0.087158203125,13.85498046875,24.261474609375,1.556396484375,15.54152358058608,63.9208485958486,-56.30793269230769
567,-0.001220703125,1.00830078125,0.127685546875,-3.41796875,13.0615234375,13.641357421875,15.005608974358974,62.31837606837607,-57.51330128205128
568,0.2099609375,0.97900390625,0.094970703125,0.42724609375,16.021728515625,8.636474609375,14.112417963980462,61.072008547008544,-55.963541666666664
569,0.04345703125,1.01513671875,0.0888671875,6.927490234375,38.330078125,20.721435546875,13.75514155982906,59.64758852258852,-58.02988782051282
570,0.095947265625,0.993896484375,0.079345703125,8.880615234375,5.706787109375,11.04736328125,12.861950549450547,58.757326007326,-60.26842948717948
571,0.098388671875,1.016357421875,0.119384765625,-1.312255859375,-6.28662109375,-2.25830078125,12.326035943223442,58.5792735042735,-60.440625
572,0.194580078125,0.98828125,0.08740234375,-12.75634765625,-42.6025390625,-8.4228515625,12.683312347374846,58.93537851037851,-58.37427884615384
573,0.13623046875,0.994873046875,0.13232421875,-15.289306640625,-27.9541015625,-14.2822265625,12.504674145299145,59.11343101343101,-56.4801282051282
574,0.170654296875,1.003173828125,0.088623046875,-12.8173828125,-22.613525390625,-3.60107421875,12.14739774114774,61.962271062271064,-53.38060897435897
575,0.187744140625,0.956298828125,0.124755859375,-1.5869140625,-17.39501953125,-3.84521484375,13.75514155982906,60.35979853479853,-52.86402243589744
576,0.2900390625,0.90380859375,0.08251953125,10.31494140625,29.96826171875,-7.62939453125,13.576503357753358,61.60616605616606,-51.65865384615384
577,0.31396484375,0.92041015625,0.019775390625,10.55908203125,64.544677734375,-15.93017578125,14.469694368131867,63.564743589743586,-54.24158653846153
578,0.328369140625,1.0400390625,-0.065673828125,9.368896484375,109.375,-25.390625,15.184247176434676,61.78421855921856,-58.718669871794866
579,0.205322265625,1.192626953125,-0.120361328125,36.376953125,156.341552734375,7.568359375,15.898799984737483,61.072008547008544,-64.5733173076923
580,-0.030517578125,0.94580078125,-0.0546875,5.950927734375,117.950439453125,-11.138916015625,17.3279056013431,57.51095848595848,-71.1167467948718
581,0.08544921875,1.072998046875,-0.0888671875,-14.6484375,94.085693359375,50.140380859375,17.685182005494504,50.38885836385836,-73.52748397435897
582,0.011962890625,1.030517578125,0.081298828125,-9.368896484375,42.633056640625,60.089111328125,14.291056166056165,38.815445665445665,-71.97772435897436
583,0.260009765625,0.953369140625,-0.010498046875,-8.026123046875,2.62451171875,24.688720703125,15.54152358058608,35.788553113553114,-69.39479166666666
584,0.319580078125,0.978759765625,-0.062744140625,21.331787109375,90.667724609375,23.98681640625,16.077438186813186,32.04945054945055,-69.9113782051282
585,0.1396484375,0.986572265625,-0.037109375,34.85107421875,94.1162109375,19.256591796875,19.471564026251524,25.461507936507935,-67.32844551282051
586,0.1103515625,1.0048828125,0.03662109375,32.867431640625,21.17919921875,-10.650634765625,19.11428762210012,20.47603785103785,-65.9508814102564
587,0.237548828125,1.04296875,0.0009765625,22.247314453125,23.74267578125,-21.728515625,20.364755036630036,23.859035409035407,-66.46746794871795
588,0.23095703125,0.9990234375,0.043212890625,5.859375,-26.153564453125,-22.491455078125,20.186116834554333,25.10540293040293,-66.29527243589743
589,0.317626953125,0.98974609375,-0.051513671875,-8.48388671875,59.4482421875,10.345458984375,20.543393238705736,25.461507936507935,-66.63966346153846
590,0.140625,1.027587890625,0.102294921875,-9.857177734375,48.065185546875,24.47509765625,19.11428762210012,21.54435286935287,-65.26209935897435
591,0.1767578125,0.9990234375,0.081787109375,8.392333984375,59.50927734375,13.427734375,20.72203144078144,17.093040293040293,-61.99038461538461
592,0.163330078125,0.90478515625,0.105224609375,19.53125,58.502197265625,-4.57763671875,20.72203144078144,13.531990231990232,-59.92403846153846
593,0.208251953125,1.019775390625,0.080810546875,35.82763671875,66.009521484375,-20.477294921875,21.25794604700855,11.929517704517703,-55.963541666666664
594,0.151611328125,0.942138671875,0.12646484375,21.05712890625,27.28271484375,-11.444091796875,20.007478632478634,12.463675213675213,-56.4801282051282
595,0.10009765625,0.984375,0.052734375,-8.36181640625,-4.852294921875,-4.425048828125,21.25794604700855,9.436782661782662,-55.27475961538462
596,0.135009765625,1.084228515625,0.07763671875,-20.294189453125,-42.572021484375,12.969970703125,20.543393238705736,11.573412698412698,-54.58597756410256
597,0.157958984375,1.051513671875,0.058837890625,-16.510009765625,-21.209716796875,14.007568359375,22.151137057387054,12.463675213675213,-57.16891025641026
598,0.15869140625,0.8408203125,0.02783203125,-23.49853515625,-21.697998046875,-7.2021484375,21.972498855311354,10.861202686202686,-58.02988782051282
599,0.325927734375,1.0625,-0.037109375,-3.143310546875,34.149169921875,-9.735107421875,19.292925824175825,12.107570207570207,-56.4801282051282
600,0.12451171875,0.856201171875,0.02734375,24.627685546875,61.492919921875,-12.20703125,19.828840430402927,11.217307692307692,-54.58597756410256
601,0.127685546875,1.03857421875,0.0322265625,27.008056640625,29.205322265625,-14.5263671875,20.543393238705736,10.861202686202686,-53.89719551282051
602,0.169921875,1.0068359375,-0.00830078125,18.402099609375,5.889892578125,-12.8173828125,20.364755036630036,10.683150183150182,-55.1025641025641
603,0.099853515625,1.199951171875,0.142578125,-12.0849609375,-32.16552734375,37.2314453125,20.186116834554333,11.217307692307692,-52.86402243589744
604,0.209716796875,1.152099609375,0.0283203125,-21.148681640625,26.18408203125,21.05712890625,21.972498855311354,11.573412698412698,-53.552804487179486
605,-0.207763671875,0.855712890625,0.16845703125,-34.393310546875,14.2822265625,46.600341796875,22.687051663614163,8.012362637362637,-50.797676282051285
606,0.194580078125,0.972412109375,0.09619140625,-23.01025390625,-99.79248046875,-29.388427734375,23.937519078144078,8.19041514041514,-50.96987179487179
607,0.30078125,0.826171875,0.11328125,10.7421875,-23.223876953125,-42.236328125,20.543393238705736,11.573412698412698,-55.27475961538462
608,0.24462890625,0.943603515625,0.154296875,13.214111328125,-26.641845703125,-22.88818359375,20.364755036630036,16.736935286935285,-57.857692307692304
609,0.183837890625,1.026611328125,0.14501953125,-1.77001953125,-31.707763671875,-28.01513671875,17.685182005494504,18.69551282051282,-58.718669871794866
610,0.010498046875,1.128173828125,0.186767578125,-27.191162109375,-71.746826171875,-28.74755859375,18.04245840964591,22.612667887667886,-61.129407051282044
611,0.173828125,1.00439453125,0.08740234375,-13.427734375,-78.61328125,-16.9677734375,15.54152358058608,27.598137973137973,-63.88453525641026
612,0.176513671875,0.897705078125,0.0322265625,12.298583984375,10.43701171875,23.3154296875,15.362885378510379,30.268925518925517,-66.81185897435897
613,-0.044677734375,1.113525390625,0.093017578125,21.331787109375,77.33154296875,14.678955078125,16.077438186813186,25.283455433455433,-65.43429487179486
614,-0.09619140625,0.90087890625,0.114013671875,-2.5634765625,-21.3623046875,-16.11328125,18.22109661172161,23.859035409035407,-64.74551282051281
615,0.1923828125,1.0322265625,-0.0302734375,-3.2958984375,-28.167724609375,-24.10888671875,17.3279056013431,27.242032967032966,-65.9508814102564
616,0.064208984375,1.011474609375,0.1103515625,16.05224609375,-42.694091796875,-19.683837890625,17.685182005494504,28.310347985347985,-66.29527243589743
617,0.36328125,0.95068359375,0.019775390625,-14.22119140625,-28.839111328125,5.523681640625,16.613352793040292,32.58360805860806,-67.67283653846154
618,0.114013671875,1.0791015625,0.1220703125,-32.958984375,-8.697509765625,0.0,15.362885378510379,32.76166056166056,-66.12307692307692
619,0.098388671875,1.0439453125,0.167236328125,-20.32470703125,-24.322509765625,4.180908203125,15.184247176434676,34.720238095238095,-63.1957532051282
620,-0.072021484375,0.8125,0.0830078125,2.838134765625,8.7890625,-21.42333984375,13.040588751526252,34.720238095238095,-62.50697115384615
621,-0.258544921875,1.07080078125,0.186279296875,23.712158203125,-47.332763671875,-37.322998046875,13.040588751526252,38.63739316239316,-64.5733173076923
622,-0.05517578125,0.91064453125,0.237060546875,-15.350341796875,-95.977783203125,-52.42919921875,13.219226953601954,45.22533577533577,-65.08990384615385
623,0.0595703125,0.869873046875,0.17626953125,8.9111328125,11.1083984375,-45.83740234375,13.576503357753358,50.21080586080586,-64.05673076923077
624,-0.114501953125,0.962158203125,0.2041015625,8.85009765625,-43.76220703125,-17.02880859375,14.291056166056165,53.05964590964591,-65.43429487179486
625,0.0029296875,1.14111328125,0.270263671875,16.7236328125,-12.481689453125,1.312255859375,16.25607638888889,56.08653846153845,-65.9508814102564
626,-0.01123046875,1.115966796875,0.162353515625,-7.2021484375,33.14208984375,60.85205078125,15.54152358058608,55.01822344322344,-65.9508814102564
627,-0.060302734375,1.00732421875,0.09814453125,-10.498046875,7.293701171875,34.271240234375,14.112417963980462,48.25222832722832,-65.9508814102564
628,-0.11328125,0.973876953125,0.078369140625,9.857177734375,47.42431640625,-12.298583984375,13.576503357753358,45.93754578754579,-65.08990384615385
629,-0.01220703125,0.78662109375,0.06982421875,13.85498046875,19.04296875,-30.1513671875,14.826970772283273,45.75949328449328,-68.36161858974359
630,-0.0166015625,1.111572265625,0.131103515625,5.67626953125,16.510009765625,-15.2587890625,15.54152358058608,47.18391330891331,-69.39479166666666
631,-0.015625,1.078369140625,0.192138671875,-23.406982421875,-2.86865234375,5.706787109375,12.861950549450547,48.074175824175825,-67.84503205128205
632,-0.122802734375,1.127685546875,0.10595703125,-13.97705078125,0.579833984375,24.7802734375,13.397865155677655,45.75949328449328,-65.60649038461538
633,0.001220703125,0.838623046875,0.05322265625,-15.655517578125,-45.41015625,27.03857421875,12.504674145299145,45.22533577533577,-64.05673076923077
634,-0.2265625,1.120361328125,0.1279296875,20.99609375,-5.584716796875,-0.3662109375,11.611483134920634,43.26675824175824,-64.5733173076923
635,-0.01220703125,0.77587890625,0.11181640625,12.3291015625,-64.51416015625,-46.051025390625,12.504674145299145,48.074175824175825,-66.46746794871795
636,0.076171875,1.001953125,0.180419921875,18.463134765625,0.091552734375,-39.48974609375,12.683312347374846,53.59380341880341,-67.32844551282051
637,-0.01025390625,1.02978515625,0.147705078125,-3.173828125,-10.467529296875,4.638671875,15.184247176434676,53.94990842490842,-68.36161858974359
638,0.0283203125,1.14013671875,0.233642578125,-3.021240234375,-44.49462890625,26.580810546875,13.933779761904761,52.703540903540905,-67.15625
639,0.1103515625,0.9931640625,0.14697265625,-4.150390625,8.72802734375,20.99609375,13.75514155982906,53.59380341880341,-65.9508814102564
640,0.00146484375,1.275634765625,0.03857421875,11.505126953125,94.879150390625,0.54931640625,11.611483134920634,51.10106837606837,-67.67283653846154
641,-0.09228515625,0.76953125,0.01904296875,-1.312255859375,53.64990234375,-27.252197265625,15.362885378510379,48.43028083028083,-68.87820512820512
642,-0.058349609375,0.961181640625,0.02392578125,1.953125,61.309814453125,-5.401611328125,13.397865155677655,47.18391330891331,-68.36161858974359
643,-0.01171875,1.112060546875,0.150146484375,-16.876220703125,-0.152587890625,0.244140625,13.397865155677655,47.18391330891331,-67.32844551282051
644,-0.058837890625,1.2216796875,0.203125,-28.167724609375,26.702880859375,26.85546875,11.968759539072039,43.62286324786324,-66.29527243589743
645,-0.111083984375,0.91748046875,0.12109375,-40.34423828125,-9.94873046875,45.562744140625,9.825101114163614,40.06181318681319,-63.1957532051282
646,-0.1640625,0.940185546875,0.086181640625,1.40380859375,-2.044677734375,20.477294921875,9.825101114163614,36.85686813186813,-59.75184294871795
647,-0.120849609375,0.798095703125,0.2255859375,18.4326171875,-53.619384765625,-52.154541015625,9.289186507936508,38.815445665445665,-62.67916666666667
648,0.13427734375,0.94580078125,0.2001953125,33.63037109375,-22.247314453125,-69.305419921875,10.896930326617825,46.115598290598285,-64.22892628205128
649,0.072998046875,0.962158203125,0.36083984375,-12.054443359375,-21.697998046875,-28.50341796875,11.790121336996338,52.703540903540905,-65.77868589743589
650,0.001220703125,1.025390625,0.207763671875,-1.220703125,53.77197265625,29.205322265625,13.040588751526252,52.5254884004884,-65.9508814102564
651,-0.018310546875,1.124267578125,0.191162109375,-11.53564453125,3.84521484375,65.216064453125,11.075568528693527,47.005860805860806,-66.12307692307692
652,0.05029296875,1.180419921875,0.156494140625,3.90625,32.53173828125,47.882080078125,10.182377518315018,41.1301282051282,-63.1957532051282
653,-0.150146484375,0.869873046875,0.138671875,8.941650390625,86.456298828125,6.8359375,12.326035943223442,33.29581807081807,-64.22892628205128
654,0.0517578125,0.874267578125,0.036376953125,9.58251953125,57.098388671875,-14.495849609375,10.539653922466423,33.29581807081807,-63.88453525641026
655,-0.1474609375,1.08349609375,0.215576171875,10.650634765625,-6.16455078125,-25.45166015625,13.040588751526252,33.651923076923076,-63.88453525641026
656,0.004150390625,1.150634765625,0.26416015625,-21.91162109375,-37.445068359375,11.23046875,11.432844932844933,35.61050061050061,-64.05673076923077
657,-0.177978515625,1.01318359375,0.1748046875,-19.53125,-48.88916015625,10.1318359375,10.36101572039072,35.61050061050061,-61.99038461538461
658,-0.28369140625,1.056640625,0.097900390625,-6.256103515625,-20.99609375,8.72802734375,10.539653922466423,34.720238095238095,-63.1957532051282
659,-0.147705078125,0.732666015625,0.16455078125,1.129150390625,-111.6943359375,-48.675537109375,9.646462912087912,38.10323565323565,-64.4011217948718
660,0.26806640625,0.96923828125,0.2109375,29.266357421875,-81.48193359375,-62.80517578125,11.432844932844933,49.14249084249084,-63.71233974358974
661,0.079833984375,1.013427734375,0.36962890625,13.946533203125,-37.9638671875,-21.6064453125,11.790121336996338,55.55238095238095,-67.15625
662,0.0205078125,1.257080078125,0.3515625,-1.129150390625,0.91552734375,22.796630859375,12.326035943223442,55.374328449328445,-66.63966346153846
663,-0.111083984375,0.794677734375,0.13232421875,0.732421875,50.018310546875,35.552978515625,13.219226953601954,53.05964590964591,-66.81185897435897
664,-0.143798828125,1.132080078125,0.038330078125,20.050048828125,79.1015625,7.659912109375,12.861950549450547,47.718070818070814,-68.53381410256411
665,-0.12646484375,0.791259765625,0.01806640625,5.279541015625,11.1083984375,-12.298583984375,12.861950549450547,45.22533577533577,-67.50064102564102
666,-0.10791015625,1.0390625,0.130126953125,6.53076171875,19.287109375,-27.923583984375,12.14739774114774,47.36196581196581,-69.22259615384615
667,0.041748046875,1.08544921875,0.125732421875,0.06103515625,-6.40869140625,-5.889892578125,12.14739774114774,47.005860805860806,-69.9113782051282
668,-0.09814453125,1.336181640625,0.254638671875,-20.01953125,-17.63916015625,33.111572265625,11.432844932844933,45.58144078144078,-69.56698717948717
669,-0.08935546875,0.9423828125,0.04736328125,-30.670166015625,-15.350341796875,24.0478515625,11.432844932844933,45.22533577533577,-67.15625
670,-0.223876953125,0.9833984375,0.1142578125,-0.030517578125,-51.6357421875,-9.857177734375,9.646462912087912,44.513125763125764,-65.77868589743589
671,0.02587890625,0.728759765625,0.175537109375,10.19287109375,-36.31591796875,-40.252685546875,12.861950549450547,50.21080586080586,-65.08990384615385
672,0.148681640625,0.96923828125,0.224365234375,25.7568359375,2.044677734375,-47.2412109375,11.790121336996338,54.12796092796093,-67.50064102564102
673,-0.01123046875,0.984375,0.267333984375,3.173828125,26.67236328125,-10.040283203125,15.362885378510379,56.26459096459096,-69.22259615384615
674,-0.1328125,1.115478515625,0.273193359375,-11.871337890625,25.970458984375,37.078857421875,13.040588751526252,52.8815934065934,-69.39479166666666
675,0.046875,0.98291015625,0.120361328125,-19.805908203125,35.552978515625,49.530029296875,13.576503357753358,48.074175824175825,-68.87820512820512
676,0.069580078125,1.140869140625,0.0146484375,1.861572265625,85.540771484375,34.24072265625,11.611483134920634,42.910653235653236,-66.63966346153846
677,-0.0810546875,0.81103515625,0.013427734375,9.033203125,91.9189453125,-4.33349609375,12.504674145299145,36.67881562881563,-67.50064102564102
678,-0.056396484375,0.9248046875,-0.026611328125,22.216796875,67.87109375,-23.895263671875,11.432844932844933,35.96660561660561,-66.81185897435897
679,-0.068359375,1.0830078125,0.128173828125,1.953125,-7.99560546875,-20.69091796875,12.861950549450547,36.67881562881563,-67.15625
680,-0.02490234375,1.137451171875,0.222412109375,-16.6015625,-1.953125,1.46484375,11.968759539072039,37.56907814407814,-67.67283653846154
681,-0.132080078125,1.05712890625,0.207275390625,-42.17529296875,-1.739501953125,9.70458984375,10.539653922466423,36.50076312576312,-64.5733173076923
682,-0.199462890625,0.895263671875,-0.00537109375,-26.30615234375,37.445068359375,41.778564453125,10.718292124542124,35.96660561660561,-61.64599358974359
683,-0.23291015625,0.8681640625,0.132568359375,24.59716796875,-36.31591796875,-16.4794921875,10.003739316239317,31.69334554334554,-61.30160256410256
684,0.0673828125,0.919189453125,0.23876953125,35.186767578125,-26.153564453125,-55.328369140625,11.611483134920634,36.14465811965812,-64.5733173076923
685,-0.022705078125,1.008544921875,0.338623046875,14.58740234375,37.9638671875,-34.423828125,12.683312347374846,41.1301282051282,-66.63966346153846
686,-0.080322265625,1.0283203125,0.135498046875,-14.434814453125,68.084716796875,21.881103515625,11.075568528693527,42.02039072039072,-66.46746794871795
687,-0.06884765625,1.22216796875,0.2021484375,-24.71923828125,-6.134033203125,64.422607421875,10.718292124542124,37.03492063492063,-65.08990384615385
688,0.049560546875,1.124267578125,0.119873046875,-8.85009765625,75.5615234375,60.72998046875,11.790121336996338,29.912820512820513,-60.61282051282051
689,-0.0029296875,0.935791015625,0.010986328125,-2.3193359375,103.94287109375,30.21240234375,12.861950549450547,25.995665445665445,-58.89086538461538
690,-0.08740234375,0.8330078125,-0.06689453125,2.349853515625,98.541259765625,14.739990234375,12.504674145299145,19.585775335775335,-54.41378205128205
691,-0.138916015625,1.1103515625,0.057373046875,31.6162109375,67.68798828125,-13.336181640625,13.933779761904761,17.093040293040293,-50.62548076923077
692,-0.066162109375,1.12158203125,0.16064453125,6.378173828125,7.38525390625,-15.777587890625,13.397865155677655,16.202777777777776,-50.797676282051285
693,-0.135009765625,1.351318359375,0.30322265625,-28.80859375,-19.134521484375,13.18359375,14.826970772283273,17.627197802197802,-52.51963141025641
694,-0.163330078125,0.79296875,0.0546875,-47.576904296875,33.905029296875,40.313720703125,14.469694368131867,17.983302808302806,-47.35376602564102
695,-0.2548828125,0.87841796875,0.129150390625,-0.091552734375,-27.77099609375,-7.171630859375,14.648332570207568,13.531990231990232,-44.08205128205128
696,0.138427734375,0.7978515625,0.204833984375,19.4091796875,-34.1796875,-41.56494140625,14.648332570207568,16.024725274725274,-46.83717948717948
697,0.140869140625,0.95263671875,0.28125,30.426025390625,50.201416015625,-24.871826171875,13.933779761904761,19.229670329670327,-46.83717948717948
698,-0.014404296875,0.999267578125,0.213134765625,-3.997802734375,73.333740234375,27.313232421875,14.112417963980462,17.271092796092795,-47.009375
699,-0.0908203125,1.25732421875,0.196533203125,-8.758544921875,56.7626953125,36.163330078125,14.469694368131867,15.490567765567766,-43.22107371794872
700,0.056640625,0.94775390625,0.0986328125,-25.81787109375,60.72998046875,33.905029296875,17.685182005494504,10.861202686202686,-38.39959935897436
701,-0.06640625,1.1005859375,-0.041748046875,8.697509765625,166.839599609375,2.74658203125,17.149267399267398,11.751465201465201,-30.995192307692307
702,-0.18798828125,0.83056640625,-0.0068359375,-18.402099609375,75.01220703125,9.124755859375,17.685182005494504,12.641727716727717,-26.001522435897435
703,-0.159423828125,0.965576171875,0.000244140625,-6.134033203125,93.1396484375,17.242431640625,17.863820207570207,12.819780219780219,-21.352243589743587
704,-0.288330078125,1.088623046875,0.163330078125,-2.044677734375,-4.364013671875,-0.152587890625,19.11428762210012,13.710042735042736,-19.458092948717947
705,0.03466796875,1.09423828125,0.228515625,-25.909423828125,-3.448486328125,20.69091796875,20.007478632478634,12.463675213675213,-20.319070512820513
706,-0.196533203125,0.952880859375,0.20751953125,-49.560546875,5.157470703125,40.008544921875,22.865689865689866,10.327045177045177,-15.497596153846153
707,-0.026611328125,0.9296875,0.118408203125,-7.049560546875,34.149169921875,24.505615234375,27.688921321733822,8.012362637362637,-14.292227564102564
708,-0.181640625,0.798828125,0.191650390625,38.238525390625,24.627685546875,0.1220703125,26.97436851343101,10.861202686202686,-12.570272435897436
709,0.18212890625,0.929443359375,0.237060546875,26.123046875,-25.87890625,-16.357421875,23.22296626984127,11.039255189255188,-14.12003205128205
710,0.021240234375,0.94482421875,0.232666015625,24.5361328125,83.984375,-2.3193359375,23.758880876068375,13.353937728937728,-15.669791666666667
711,-0.052978515625,1.11669921875,0.220947265625,-11.71875,20.843505859375,44.25048828125,23.580242673992675,14.600305250305249,-12.742467948717948
712,0.017333984375,1.0615234375,0.12744140625,-14.251708984375,33.3251953125,34.149169921875,25.545262896825395,12.28562271062271,-10.848317307692309
713,0.138916015625,0.940185546875,0.0283203125,5.889892578125,40.4052734375,-11.932373046875,28.046197725885225,13.353937728937728,-10.848317307692309
714,0.03125,1.018310546875,-0.03955078125,33.172607421875,105.16357421875,-4.2724609375,25.187986492673993,17.983302808302806,-9.12636217948718
715,0.078369140625,0.85009765625,-0.025634765625,10.467529296875,51.239013671875,10.43701171875,25.723901098901095,24.57124542124542,-9.298557692307693
716,-0.09912109375,1.150390625,0.0537109375,-0.42724609375,58.7158203125,-8.270263671875,24.116157280219777,31.871398046398046,-10.503926282051282
717,-0.0224609375,1.105712890625,0.159423828125,-25.87890625,-1.617431640625,-5.279541015625,25.9025393009768,31.515293040293038,-8.781971153846154
718,0.0087890625,1.0576171875,0.1123046875,-41.32080078125,17.4560546875,22.064208984375,27.331644917582416,31.871398046398046,-7.060016025641025
719,-0.28369140625,0.874755859375,0.021240234375,-16.7236328125,46.844482421875,27.008056640625,32.690790979853475,31.871398046398046,-7.060016025641025
720,-0.14599609375,0.889404296875,0.12353515625,34.271240234375,-36.285400390625,-34.423828125,30.18985615079365,34.36413308913309,-7.060016025641025
721,0.166259765625,0.935302734375,0.268798828125,16.90673828125,-50.10986328125,-15.56396484375,27.867559523809522,31.69334554334554,-5.854647435897435
722,-0.018798828125,0.953857421875,0.191650390625,15.19775390625,82.82470703125,-2.5634765625,27.867559523809522,32.40555555555555,-8.60977564102564
723,-0.035400390625,1.076904296875,0.180908203125,-13.12255859375,-4.2724609375,31.158447265625,28.760750534188034,36.50076312576312,-8.781971153846154
724,0.252197265625,1.1220703125,0.13134765625,-25.482177734375,13.48876953125,43.487548828125,27.51028311965812,33.82997557997558,-6.543429487179488
725,-0.107666015625,1.0185546875,0.0615234375,4.2724609375,81.11572265625,9.735107421875,28.760750534188034,36.14465811965812,-7.748798076923077
726,0.02587890625,0.926025390625,0.02685546875,34.72900390625,65.582275390625,-18.49365234375,28.939388736263734,39.883760683760684,-11.364903846153847
727,0.1259765625,0.965087890625,0.03759765625,11.016845703125,62.103271484375,-2.105712890625,25.366624694749692,46.649755799755795,-13.431249999999999
728,-0.07373046875,1.034912109375,0.010498046875,-0.1220703125,74.52392578125,-2.349853515625,26.081177503052505,50.56691086691087,-17.90833333333333
729,-0.05224609375,1.1904296875,0.09765625,-21.8505859375,5.615234375,9.8876953125,27.153006715506717,52.703540903540905,-17.563942307692308
730,-0.0029296875,1.32373046875,0.213623046875,-41.68701171875,-17.547607421875,28.4423828125,26.617092109279607,51.81327838827839,-16.702964743589742
731,-0.069580078125,0.781494140625,0.0498046875,-27.52685546875,47.882080078125,24.749755859375,29.832579746642246,48.60833333333333,-14.981009615384615
732,-0.163330078125,0.9287109375,0.125244140625,15.411376953125,-7.75146484375,-21.697998046875,29.653941544566546,51.279120879120875,-16.875160256410254
733,0.136962890625,0.811279296875,0.197509765625,29.693603515625,-37.384033203125,-18.768310546875,29.296665140415136,50.21080586080586,-14.464423076923076
734,0.060546875,1.003173828125,0.266845703125,15.594482421875,75.592041015625,-11.749267578125,27.153006715506717,50.56691086691087,-16.875160256410254
735,-0.160888671875,1.1171875,0.165771484375,-9.674072265625,37.445068359375,21.453857421875,25.9025393009768,55.374328449328445,-19.458092948717947
736,0.05908203125,1.1796875,0.221435546875,-14.617919921875,-43.51806640625,39.4287109375,25.9025393009768,54.66211843711844,-20.835657051282052
737,0.054931640625,0.88330078125,0.147216796875,-3.90625,39.459228515625,32.1044921875,26.259815705128204,50.38885836385836,-18.080528846153847
738,-0.0048828125,1.068603515625,0.07568359375,27.2216796875,69.488525390625,-13.48876953125,23.580242673992675,53.05964590964591,-19.285897435897436
739,0.0693359375,0.760498046875,0.0927734375,14.801025390625,45.257568359375,-16.41845703125,23.758880876068375,56.08653846153845,-24.62395833333333
740,-0.080322265625,1.080322265625,0.0703125,8.819580078125,70.4345703125,-4.791259765625,24.116157280219777,61.78421855921856,-29.101041666666664
741,-0.046630859375,1.152587890625,0.1552734375,-14.404296875,-9.82666015625,-0.54931640625,23.40160447191697,63.9208485958486,-31.511778846153845
742,0.00732421875,1.22607421875,0.222412109375,-32.196044921875,-11.53564453125,24.810791015625,23.40160447191697,63.564743589743586,-29.789823717948718
743,-0.122802734375,0.767333984375,0.038818359375,-24.383544921875,21.514892578125,6.8359375,24.83071008852259,59.64758852258852,-27.723477564102563
744,-0.374755859375,1.062744140625,0.1240234375,22.216796875,-23.62060546875,-38.2080078125,23.40160447191697,62.14032356532356,-31.16738782051282
745,-0.066162109375,0.81689453125,0.195068359375,35.430908203125,-111.175537109375,-42.388916015625,25.187986492673993,58.93537851037851,-26.345913461538462
746,0.2744140625,0.9716796875,0.248046875,9.552001953125,-10.498046875,-10.284423828125,24.473433684371184,57.51095848595848,-21.180048076923075
747,-0.14404296875,1.062255859375,0.21533203125,3.2958984375,21.942138671875,19.6533203125,23.580242673992675,58.401221001220996,-25.82932692307692
748,0.087646484375,1.250732421875,0.19140625,-12.908935546875,-40.6494140625,38.848876953125,22.508413461538463,55.55238095238095,-26.17371794871795
749,-0.0341796875,0.8388671875,0.160400390625,-11.65771484375,18.73779296875,30.57861328125,21.79386065323565,51.635225885225886,-22.729807692307695
750,-0.063720703125,0.998291015625,0.046630859375,26.3671875,49.530029296875,-22.613525390625,21.436584249084248,51.99133089133089,-21.696634615384617
751,0.027587890625,0.84814453125,0.1201171875,16.998291015625,-16.326904296875,-22.247314453125,22.687051663614163,54.66211843711844,-24.96834935897436
752,-0.052734375,0.97314453125,0.1005859375,14.5263671875,40.34423828125,-16.998291015625,21.25794604700855,56.08653846153845,-26.345913461538462
753,0.0654296875,1.1298828125,0.188720703125,-17.76123046875,-44.952392578125,-1.556396484375,21.972498855311354,56.798748473748475,-26.690304487179485
754,0.008056640625,1.295166015625,0.2216796875,-24.749755859375,17.76123046875,25.115966796875,21.972498855311354,55.374328449328445,-22.902003205128207
755,-0.05419921875,0.890380859375,0.04638671875,-28.62548828125,-10.406494140625,16.387939453125,24.473433684371184,53.59380341880341,-19.802483974358974
756,-0.39111328125,0.98583984375,0.123291015625,15.899658203125,-6.65283203125,-39.886474609375,25.723901098901095,55.19627594627595,-20.66346153846154
757,-0.006103515625,0.805908203125,0.111328125,29.144287109375,-96.0693359375,-46.417236328125,25.723901098901095,53.77185592185592,-19.285897435897436
758,0.125732421875,1.002685546875,0.30908203125,16.571044921875,-28.076171875,-17.303466796875,23.937519078144078,50.92301587301587,-16.186378205128204
759,-0.070068359375,1.013427734375,0.237060546875,3.2958984375,-6.134033203125,2.105712890625,25.187986492673993,50.38885836385836,-17.73613782051282
760,0.07080078125,1.314697265625,0.2841796875,-6.988525390625,-45.71533203125,38.543701171875,23.580242673992675,46.29365079365079,-14.464423076923076
761,-0.021240234375,0.873046875,0.12890625,-10.894775390625,41.68701171875,40.34423828125,24.652071886446883,43.80091575091575,-15.153205128205128
762,-0.122802734375,1.079345703125,0.03369140625,20.69091796875,45.83740234375,-15.80810546875,24.116157280219777,45.75949328449328,-13.603445512820512
763,-0.044677734375,0.812744140625,0.12451171875,15.411376953125,-16.510009765625,-26.4892578125,24.473433684371184,50.03275335775336,-16.014182692307692
764,-0.03173828125,0.985595703125,0.039794921875,22.613525390625,36.2548828125,-12.26806640625,23.40160447191697,49.32054334554335,-17.04735576923077
765,0.025634765625,1.234375,0.24365234375,-17.120361328125,-64.63623046875,-4.058837890625,23.937519078144078,50.92301587301587,-18.597115384615385
766,0.017333984375,1.060546875,0.134521484375,-22.8271484375,43.487548828125,13.641357421875,24.473433684371184,48.96443833943833,-16.702964743589742
767,-0.007080078125,1.0146484375,0.185791015625,-45.989990234375,-44.61669921875,20.20263671875,24.652071886446883,47.718070818070814,-12.742467948717948
768,-0.24755859375,0.9580078125,0.093505859375,-1.46484375,89.4775390625,12.51220703125,26.081177503052505,45.22533577533577,-13.086858974358975
769,-0.1875,0.840576171875,0.107177734375,28.472900390625,-48.76708984375,-41.015625,26.438453907203908,51.279120879120875,-15.497596153846153
770,0.06787109375,0.8759765625,0.240478515625,30.57861328125,-52.337646484375,-29.541015625,26.259815705128204,48.25222832722832,-13.603445512820512
771,-0.0546875,0.981689453125,0.26708984375,11.77978515625,23.4375,-5.401611328125,23.758880876068375,47.89612332112332,-16.014182692307692
772,-0.12939453125,1.148681640625,0.217529296875,3.23486328125,-14.617919921875,22.03369140625,23.937519078144078,47.005860805860806,-15.497596153846153
773,0.134765625,0.984619140625,0.1240234375,-18.85986328125,-12.603759765625,43.853759765625,23.580242673992675,43.444810744810745,-13.431249999999999
774,-0.024658203125,1.1064453125,0.05029296875,3.692626953125,52.001953125,4.913330078125,22.32977525946276,42.55454822954823,-13.259054487179487
775,-0.14013671875,0.9169921875,0.071044921875,29.876708984375,48.33984375,-25.2685546875,22.508413461538463,48.074175824175825,-15.841987179487178
776,0.02734375,0.880126953125,0.001220703125,9.521484375,21.97265625,-3.204345703125,21.436584249084248,52.3474358974359,-17.90833333333333
777,-0.099609375,1.05712890625,0.181396484375,-6.103515625,-24.10888671875,-12.420654296875,23.044328067765566,52.8815934065934,-20.146874999999998
778,0.10009765625,1.09619140625,0.11474609375,-21.148681640625,26.397705078125,11.383056640625,22.508413461538463,50.92301587301587,-16.875160256410254
779,-0.1240234375,1.178955078125,0.230224609375,-41.290283203125,-46.661376953125,20.751953125,23.937519078144078,48.78638583638583,-15.841987179487178
780,-0.146728515625,0.771728515625,0.04248046875,-24.505615234375,9.002685546875,5.218505859375,26.438453907203908,45.58144078144078,-11.70929487179487
781,-0.222412109375,1.151123046875,0.1474609375,31.67724609375,-49.1943359375,-49.407958984375,26.617092109279607,46.115598290598285,-10.848317307692309
782,0.142578125,0.80322265625,0.23779296875,17.730712890625,-119.9951171875,-49.346923828125,26.259815705128204,40.417918192918194,-10.159535256410257
783,0.139404296875,0.87939453125,0.230712890625,6.866455078125,60.60791015625,-11.474609375,25.00934829059829,39.17155067155067,-10.33173076923077
784,-0.103271484375,1.114990234375,0.217529296875,-3.448486328125,-2.8076171875,9.09423828125,25.00934829059829,42.02039072039072,-12.398076923076921
785,0.1201171875,1.201904296875,0.2275390625,2.50244140625,-20.843505859375,36.62109375,25.187986492673993,41.84233821733821,-10.848317307692309
786,0.07177734375,0.982421875,0.145263671875,-5.767822265625,66.2841796875,49.74365234375,25.00934829059829,39.17155067155067,-11.70929487179487
787,-0.076416015625,1.054443359375,0.037841796875,9.368896484375,98.052978515625,0.18310546875,23.758880876068375,42.55454822954823,-12.22588141025641
788,0.02978515625,0.7861328125,0.062744140625,10.894775390625,17.303466796875,-12.26806640625,24.116157280219777,46.115598290598285,-16.358573717948715
789,-0.06005859375,0.990234375,0.085205078125,18.096923828125,75.5615234375,-17.425537109375,22.865689865689866,50.56691086691087,-16.186378205128204
790,-0.01123046875,1.0966796875,0.146240234375,-16.78466796875,-21.6064453125,3.814697265625,23.937519078144078,52.703540903540905,-19.974679487179486
791,-0.058837890625,1.287109375,0.26513671875,-21.453857421875,0.79345703125,15.44189453125,23.22296626984127,51.635225885225886,-18.94150641025641
792,0.067626953125,0.922607421875,0.09326171875,-36.2548828125,16.78466796875,19.989013671875,26.438453907203908,51.279120879120875,-15.841987179487178
793,-0.246826171875,0.902587890625,0.16064453125,-5.950927734375,25.93994140625,3.90625,26.79573031135531,51.635225885225886,-16.53076923076923
794,-0.019287109375,0.863525390625,0.159912109375,29.541015625,-15.80810546875,-28.99169921875,28.40347413003663,52.5254884004884,-16.702964743589742
795,0.0380859375,0.9775390625,0.3203125,27.64892578125,-21.820068359375,-18.00537109375,26.97436851343101,52.8815934065934,-17.391746794871793
796,0.02587890625,0.899169921875,0.205322265625,12.5732421875,48.64501953125,-9.27734375,26.438453907203908,53.77185592185592,-18.25272435897436
797,-0.127197265625,1.099609375,0.21435546875,0.48828125,-2.655029296875,19.6533203125,25.545262896825395,55.374328449328445,-22.213221153846153
798,0.1474609375,1.181884765625,0.185791015625,-16.571044921875,-5.767822265625,32.928466796875,23.22296626984127,53.05964590964591,-19.630288461538463
799,-0.010009765625,0.91650390625,0.1533203125,-13.397216796875,18.06640625,21.1181640625,24.29479548229548,51.99133089133089,-18.25272435897436
800,-0.0556640625,1.029296875,0.083740234375,11.16943359375,74.951171875,-2.288818359375,25.00934829059829,54.12796092796093,-19.630288461538463
801,-0.059814453125,0.86376953125,0.112548828125,7.293701171875,9.6435546875,-11.688232421875,24.473433684371184,57.51095848595848,-23.935176282051284
802,-0.055419921875,0.99169921875,0.15478515625,1.312255859375,12.63427734375,-7.2021484375,23.40160447191697,57.86706349206349,-24.96834935897436
803,0.042724609375,1.001953125,0.302734375,-22.735595703125,-42.083740234375,-6.256103515625,24.652071886446883,58.757326007326,-23.762980769230765
804,0.18115234375,0.997802734375,0.29443359375,-27.618408203125,11.688232421875,16.29638671875,25.366624694749692,54.84017094017094,-19.285897435897436
805,-0.04931640625,1.019287109375,0.351806640625,-23.651123046875,-15.9912109375,9.246826171875,26.617092109279607,56.08653846153845,-18.769310897435897
806,-0.13818359375,0.904052734375,0.209228515625,-11.138916015625,7.537841796875,1.129150390625,28.224835927960925,54.48406593406593,-18.597115384615385
807,-0.06396484375,0.94287109375,0.282470703125,9.70458984375,-38.299560546875,-28.50341796875,27.51028311965812,55.19627594627595,-17.563942307692308
808,0.109375,0.785400390625,0.284912109375,21.1181640625,-36.68212890625,-23.834228515625,27.688921321733822,53.23769841269841,-16.358573717948715
